TIME,ACCX,ACCY,ACCZ,GYRX,GYRY,GYRZ,MAGX,MAGY,MAGZ,LAB
0.000000000000000000e+00,-1.300000000000000000e+01,3.443000000000000000e+03,-3.390000000000000000e+02,-3.750000000000000000e+02,-3.730000000000000000e+02,-1.528000000000000000e+03,5.000000000000000000e+01,8.800000000000000000e+01,-1.460000000000000000e+02,0.000000000000000000e+00
1.000000000000000021e-02,1.340000000000000000e+02,3.635000000000000000e+03,-4.200000000000000000e+01,-1.439000000000000000e+03,-8.800000000000000000e+02,-1.539000000000000000e+03,5.000000000000000000e+01,8.800000000000000000e+01,-1.460000000000000000e+02,0.000000000000000000e+00
2.000000000000000042e-02,-4.760000000000000000e+02,3.358000000000000000e+03,-9.450000000000000000e+02,-2.510000000000000000e+03,-1.260000000000000000e+03,-1.534000000000000000e+03,-5.800000000000000000e+01,9.800000000000000000e+01,-1.140000000000000000e+02,0.000000000000000000e+00
2.999999999999999889e-02,-7.850000000000000000e+02,1.650000000000000000e+03,-1.948000000000000000e+03,-1.847000000000000000e+03,-6.550000000000000000e+02,-1.373000000000000000e+03,-5.800000000000000000e+01,9.800000000000000000e+01,-1.140000000000000000e+02,0.000000000000000000e+00
4.000000000000000083e-02,-2.548000000000000000e+03,1.124000000000000000e+03,-5.810000000000000000e+02,-1.127000000000000000e+03,-1.520000000000000000e+02,-1.250000000000000000e+03,-6.600000000000000000e+01,9.200000000000000000e+01,-1.180000000000000000e+02,0.000000000000000000e+00
5.000000000000000278e-02,-1.722000000000000000e+03,2.773000000000000000e+03,4.987000000000000000e+03,2.200000000000000000e+02,1.100000000000000000e+03,-1.218000000000000000e+03,-6.600000000000000000e+01,9.200000000000000000e+01,-1.180000000000000000e+02,0.000000000000000000e+00
5.999999999999999778e-02,3.330000000000000000e+02,2.778000000000000000e+03,6.391000000000000000e+03,-1.460000000000000000e+03,2.730000000000000000e+02,-1.097000000000000000e+03,-6.100000000000000000e+01,9.300000000000000000e+01,-1.070000000000000000e+02,0.000000000000000000e+00
7.000000000000000666e-02,1.179000000000000000e+03,2.182000000000000000e+03,1.605000000000000000e+03,-3.503000000000000000e+03,-3.870000000000000000e+02,-5.950000000000000000e+02,-6.100000000000000000e+01,9.300000000000000000e+01,-1.070000000000000000e+02,0.000000000000000000e+00
8.000000000000000167e-02,3.740000000000000000e+02,9.900000000000000000e+01,-2.789000000000000000e+03,-2.229000000000000000e+03,7.030000000000000000e+02,2.920000000000000000e+02,-6.700000000000000000e+01,9.300000000000000000e+01,-1.110000000000000000e+02,0.000000000000000000e+00
8.999999999999999667e-02,2.430000000000000000e+02,-9.880000000000000000e+02,3.602000000000000000e+03,-1.292000000000000000e+03,1.646000000000000000e+03,1.023000000000000000e+03,-6.700000000000000000e+01,9.300000000000000000e+01,-1.110000000000000000e+02,0.000000000000000000e+00
1.000000000000000056e-01,1.325000000000000000e+03,-3.262000000000000000e+03,9.705000000000000000e+03,-4.262000000000000000e+03,1.170000000000000000e+03,2.266000000000000000e+03,-6.200000000000000000e+01,9.400000000000000000e+01,-1.040000000000000000e+02,0.000000000000000000e+00
1.100000000000000006e-01,9.582000000000000000e+03,-2.495300000000000000e+04,8.472000000000000000e+03,-6.883000000000000000e+03,-1.175000000000000000e+03,4.548000000000000000e+03,-6.200000000000000000e+01,9.400000000000000000e+01,-1.040000000000000000e+02,0.000000000000000000e+00
1.199999999999999956e-01,9.949000000000000000e+03,-2.265600000000000000e+04,3.750000000000000000e+02,-7.029000000000000000e+03,-7.540000000000000000e+02,6.140000000000000000e+03,-5.600000000000000000e+01,1.000000000000000000e+02,-1.020000000000000000e+02,0.000000000000000000e+00
1.300000000000000044e-01,-9.668000000000000000e+03,-1.428600000000000000e+04,-7.836000000000000000e+03,-7.065000000000000000e+03,-2.280000000000000000e+03,3.603000000000000000e+03,-5.600000000000000000e+01,1.000000000000000000e+02,-1.020000000000000000e+02,0.000000000000000000e+00
1.400000000000000133e-01,-1.598300000000000000e+04,-3.631000000000000000e+03,-8.894000000000000000e+03,2.056000000000000000e+03,-2.170000000000000000e+03,-4.000000000000000000e+00,-5.000000000000000000e+01,1.160000000000000000e+02,-8.600000000000000000e+01,0.000000000000000000e+00
1.499999999999999944e-01,-6.004000000000000000e+03,-2.697000000000000000e+03,-4.850000000000000000e+02,5.174000000000000000e+03,-9.720000000000000000e+02,-2.227000000000000000e+03,-5.000000000000000000e+01,1.160000000000000000e+02,-8.600000000000000000e+01,0.000000000000000000e+00
1.600000000000000033e-01,-1.203000000000000000e+03,-6.502000000000000000e+03,3.740000000000000000e+03,4.663000000000000000e+03,3.270000000000000000e+03,-1.378000000000000000e+03,-4.300000000000000000e+01,1.130000000000000000e+02,-7.900000000000000000e+01,0.000000000000000000e+00
1.700000000000000122e-01,8.941000000000000000e+03,-9.587000000000000000e+03,4.933000000000000000e+03,5.551000000000000000e+03,-2.735000000000000000e+03,6.100000000000000000e+01,-4.300000000000000000e+01,1.130000000000000000e+02,-7.900000000000000000e+01,0.000000000000000000e+00
1.799999999999999933e-01,1.511000000000000000e+03,-1.244900000000000000e+04,8.483000000000000000e+03,1.375000000000000000e+03,-1.473000000000000000e+03,4.250000000000000000e+02,-4.800000000000000000e+01,1.080000000000000000e+02,-9.200000000000000000e+01,0.000000000000000000e+00
1.900000000000000022e-01,2.758000000000000000e+03,-9.946000000000000000e+03,3.508000000000000000e+03,-1.991000000000000000e+03,-1.823000000000000000e+03,2.320000000000000000e+02,-4.800000000000000000e+01,1.080000000000000000e+02,-9.200000000000000000e+01,0.000000000000000000e+00
2.000000000000000111e-01,3.074000000000000000e+03,-6.157000000000000000e+03,-1.104000000000000000e+03,-3.027000000000000000e+03,-7.770000000000000000e+02,-8.100000000000000000e+01,-4.100000000000000000e+01,1.090000000000000000e+02,-9.900000000000000000e+01,0.000000000000000000e+00
2.099999999999999922e-01,3.417000000000000000e+03,-5.668000000000000000e+03,-4.395000000000000000e+03,-1.800000000000000000e+03,-5.470000000000000000e+02,-4.500000000000000000e+02,-4.100000000000000000e+01,1.090000000000000000e+02,-9.900000000000000000e+01,0.000000000000000000e+00
2.200000000000000011e-01,3.841000000000000000e+03,-6.603000000000000000e+03,-2.886000000000000000e+03,1.150000000000000000e+02,-4.680000000000000000e+02,-7.950000000000000000e+02,-4.800000000000000000e+01,1.080000000000000000e+02,-8.800000000000000000e+01,0.000000000000000000e+00
2.300000000000000100e-01,3.465000000000000000e+03,-6.730000000000000000e+03,1.050000000000000000e+02,1.079000000000000000e+03,-1.670000000000000000e+02,-1.028000000000000000e+03,-4.800000000000000000e+01,1.080000000000000000e+02,-8.800000000000000000e+01,0.000000000000000000e+00
2.399999999999999911e-01,2.514000000000000000e+03,-7.363000000000000000e+03,1.610000000000000000e+03,9.580000000000000000e+02,-2.900000000000000000e+02,-1.176000000000000000e+03,-4.800000000000000000e+01,1.080000000000000000e+02,-8.800000000000000000e+01,0.000000000000000000e+00
2.500000000000000000e-01,1.238000000000000000e+03,-7.185000000000000000e+03,1.776000000000000000e+03,5.590000000000000000e+02,-4.690000000000000000e+02,-1.149000000000000000e+03,-4.800000000000000000e+01,1.080000000000000000e+02,-8.800000000000000000e+01,0.000000000000000000e+00
2.600000000000000089e-01,1.394000000000000000e+03,-6.688000000000000000e+03,1.155000000000000000e+03,2.080000000000000000e+02,-6.470000000000000000e+02,-1.041000000000000000e+03,-4.900000000000000000e+01,1.050000000000000000e+02,-8.900000000000000000e+01,0.000000000000000000e+00
2.700000000000000178e-01,1.205000000000000000e+03,-5.588000000000000000e+03,-2.570000000000000000e+02,2.670000000000000000e+02,-7.370000000000000000e+02,-9.030000000000000000e+02,-4.900000000000000000e+01,1.050000000000000000e+02,-8.900000000000000000e+01,0.000000000000000000e+00
2.800000000000000266e-01,9.460000000000000000e+02,-4.656000000000000000e+03,-1.152000000000000000e+03,5.450000000000000000e+02,-1.114000000000000000e+03,-7.670000000000000000e+02,-6.200000000000000000e+01,1.020000000000000000e+02,-9.200000000000000000e+01,0.000000000000000000e+00
2.899999999999999800e-01,2.170000000000000000e+02,-4.573000000000000000e+03,-1.194000000000000000e+03,7.400000000000000000e+02,-1.588000000000000000e+03,-5.640000000000000000e+02,-6.200000000000000000e+01,1.020000000000000000e+02,-9.200000000000000000e+01,0.000000000000000000e+00
2.999999999999999889e-01,-1.102000000000000000e+03,-4.529000000000000000e+03,2.100000000000000000e+02,8.880000000000000000e+02,-1.277000000000000000e+03,-3.510000000000000000e+02,-5.300000000000000000e+01,1.070000000000000000e+02,-9.100000000000000000e+01,0.000000000000000000e+00
3.099999999999999978e-01,-4.640000000000000000e+02,-4.153000000000000000e+03,-1.037000000000000000e+03,1.042000000000000000e+03,-8.180000000000000000e+02,-2.060000000000000000e+02,-5.300000000000000000e+01,1.070000000000000000e+02,-9.100000000000000000e+01,0.000000000000000000e+00
3.200000000000000067e-01,-9.060000000000000000e+02,-3.610000000000000000e+03,-5.560000000000000000e+02,1.913000000000000000e+03,-7.550000000000000000e+02,-2.800000000000000000e+01,-6.200000000000000000e+01,1.080000000000000000e+02,-9.800000000000000000e+01,0.000000000000000000e+00
3.300000000000000155e-01,-4.350000000000000000e+02,-2.246000000000000000e+03,-3.820000000000000000e+02,2.893000000000000000e+03,-8.040000000000000000e+02,1.780000000000000000e+02,-6.200000000000000000e+01,1.080000000000000000e+02,-9.800000000000000000e+01,0.000000000000000000e+00
3.400000000000000244e-01,-2.690000000000000000e+02,-4.060000000000000000e+02,-4.020000000000000000e+02,3.556000000000000000e+03,-8.970000000000000000e+02,3.930000000000000000e+02,-5.900000000000000000e+01,1.050000000000000000e+02,-9.100000000000000000e+01,0.000000000000000000e+00
3.499999999999999778e-01,-4.550000000000000000e+02,9.660000000000000000e+02,1.080000000000000000e+02,4.319000000000000000e+03,-7.410000000000000000e+02,6.450000000000000000e+02,-5.900000000000000000e+01,1.050000000000000000e+02,-9.100000000000000000e+01,0.000000000000000000e+00
3.599999999999999867e-01,-7.030000000000000000e+02,1.652000000000000000e+03,6.180000000000000000e+02,4.394000000000000000e+03,1.050000000000000000e+02,9.420000000000000000e+02,-5.800000000000000000e+01,1.040000000000000000e+02,-1.020000000000000000e+02,0.000000000000000000e+00
3.699999999999999956e-01,-9.970000000000000000e+02,2.518000000000000000e+03,4.260000000000000000e+02,4.133000000000000000e+03,3.560000000000000000e+02,1.172000000000000000e+03,-5.800000000000000000e+01,1.040000000000000000e+02,-1.020000000000000000e+02,0.000000000000000000e+00
3.800000000000000044e-01,-8.880000000000000000e+02,3.390000000000000000e+03,1.144000000000000000e+03,3.730000000000000000e+03,-1.307000000000000000e+03,1.425000000000000000e+03,-5.700000000000000000e+01,9.900000000000000000e+01,-1.110000000000000000e+02,0.000000000000000000e+00
3.900000000000000133e-01,-1.566000000000000000e+03,3.546000000000000000e+03,1.788000000000000000e+03,2.694000000000000000e+03,-7.760000000000000000e+02,1.483000000000000000e+03,-5.700000000000000000e+01,9.900000000000000000e+01,-1.110000000000000000e+02,0.000000000000000000e+00
4.000000000000000222e-01,-1.473000000000000000e+03,3.828000000000000000e+03,1.917000000000000000e+03,7.200000000000000000e+01,-2.680000000000000000e+02,1.529000000000000000e+03,-5.400000000000000000e+01,9.800000000000000000e+01,-1.120000000000000000e+02,0.000000000000000000e+00
4.099999999999999756e-01,-1.089000000000000000e+03,3.767000000000000000e+03,1.035000000000000000e+03,-1.846000000000000000e+03,6.500000000000000000e+01,1.451000000000000000e+03,-5.400000000000000000e+01,9.800000000000000000e+01,-1.120000000000000000e+02,0.000000000000000000e+00
4.199999999999999845e-01,2.540000000000000000e+02,3.406000000000000000e+03,-4.770000000000000000e+02,-2.654000000000000000e+03,8.070000000000000000e+02,1.355000000000000000e+03,-5.600000000000000000e+01,9.600000000000000000e+01,-1.180000000000000000e+02,0.000000000000000000e+00
4.299999999999999933e-01,7.680000000000000000e+02,2.649000000000000000e+03,-1.960000000000000000e+03,-2.690000000000000000e+03,3.550000000000000000e+02,1.161000000000000000e+03,-5.600000000000000000e+01,9.600000000000000000e+01,-1.180000000000000000e+02,0.000000000000000000e+00
4.400000000000000022e-01,7.960000000000000000e+02,2.044000000000000000e+03,-1.914000000000000000e+03,-2.051000000000000000e+03,-6.470000000000000000e+02,9.850000000000000000e+02,-4.800000000000000000e+01,1.040000000000000000e+02,-1.160000000000000000e+02,0.000000000000000000e+00
4.500000000000000111e-01,4.960000000000000000e+02,1.796000000000000000e+03,-1.115000000000000000e+03,-9.680000000000000000e+02,-7.320000000000000000e+02,7.480000000000000000e+02,-4.800000000000000000e+01,1.040000000000000000e+02,-1.160000000000000000e+02,0.000000000000000000e+00
4.600000000000000200e-01,3.978000000000000000e+03,2.416000000000000000e+03,1.201000000000000000e+03,2.470000000000000000e+02,-2.979000000000000000e+03,3.910000000000000000e+02,-4.600000000000000000e+01,1.080000000000000000e+02,-1.120000000000000000e+02,0.000000000000000000e+00
4.699999999999999734e-01,3.371000000000000000e+03,2.012000000000000000e+03,9.111000000000000000e+03,1.069000000000000000e+03,-1.487000000000000000e+03,2.410000000000000000e+02,-4.600000000000000000e+01,1.080000000000000000e+02,-1.120000000000000000e+02,0.000000000000000000e+00
4.799999999999999822e-01,-2.778000000000000000e+03,4.936000000000000000e+03,9.845000000000000000e+03,-3.435000000000000000e+03,-2.797000000000000000e+03,2.120000000000000000e+02,-5.200000000000000000e+01,1.040000000000000000e+02,-1.120000000000000000e+02,0.000000000000000000e+00
4.899999999999999911e-01,-4.075000000000000000e+03,6.890000000000000000e+02,2.670000000000000000e+03,-3.941000000000000000e+03,-2.437000000000000000e+03,-9.610000000000000000e+02,-5.200000000000000000e+01,1.040000000000000000e+02,-1.120000000000000000e+02,0.000000000000000000e+00
5.000000000000000000e-01,-4.529000000000000000e+03,-2.026000000000000000e+03,2.378000000000000000e+03,-4.305000000000000000e+03,-2.893000000000000000e+03,-2.440000000000000000e+03,-5.000000000000000000e+01,1.080000000000000000e+02,-1.020000000000000000e+02,0.000000000000000000e+00
5.100000000000000089e-01,-5.927000000000000000e+03,-1.268600000000000000e+04,7.445000000000000000e+03,-4.617000000000000000e+03,-3.279000000000000000e+03,-4.707000000000000000e+03,-5.000000000000000000e+01,1.080000000000000000e+02,-1.020000000000000000e+02,0.000000000000000000e+00
5.200000000000000178e-01,-4.060000000000000000e+02,-2.107200000000000000e+04,6.350000000000000000e+02,-3.631000000000000000e+03,-1.950000000000000000e+02,-5.916000000000000000e+03,-5.800000000000000000e+01,1.040000000000000000e+02,-9.000000000000000000e+01,0.000000000000000000e+00
5.300000000000000266e-01,1.250700000000000000e+04,-2.088000000000000000e+04,-1.577000000000000000e+03,-2.818000000000000000e+03,-1.260000000000000000e+03,-4.140000000000000000e+03,-5.800000000000000000e+01,1.040000000000000000e+02,-9.000000000000000000e+01,0.000000000000000000e+00
5.400000000000000355e-01,1.067100000000000000e+04,-9.198000000000000000e+03,-8.199000000000000000e+03,9.360000000000000000e+02,-1.619000000000000000e+03,-4.110000000000000000e+02,-6.200000000000000000e+01,9.800000000000000000e+01,-7.800000000000000000e+01,0.000000000000000000e+00
5.500000000000000444e-01,7.336000000000000000e+03,-1.595000000000000000e+03,-1.212000000000000000e+03,6.594000000000000000e+03,2.320000000000000000e+02,-1.870000000000000000e+02,-6.200000000000000000e+01,9.800000000000000000e+01,-7.800000000000000000e+01,0.000000000000000000e+00
5.600000000000000533e-01,5.689000000000000000e+03,1.144000000000000000e+03,1.824300000000000000e+04,5.917000000000000000e+03,-1.090000000000000000e+02,8.600000000000000000e+01,-6.800000000000000000e+01,9.600000000000000000e+01,-8.000000000000000000e+01,0.000000000000000000e+00
5.699999999999999512e-01,5.480000000000000000e+02,-2.629000000000000000e+03,7.931000000000000000e+03,-3.289000000000000000e+03,3.840000000000000000e+02,-3.040000000000000000e+02,-6.800000000000000000e+01,9.600000000000000000e+01,-8.000000000000000000e+01,0.000000000000000000e+00
5.799999999999999600e-01,1.194000000000000000e+03,-8.789000000000000000e+03,4.500000000000000000e+01,-3.432000000000000000e+03,-5.270000000000000000e+02,-5.590000000000000000e+02,-6.900000000000000000e+01,9.700000000000000000e+01,-8.900000000000000000e+01,0.000000000000000000e+00
5.899999999999999689e-01,1.675000000000000000e+03,-1.188100000000000000e+04,-3.108000000000000000e+03,-1.311000000000000000e+03,4.210000000000000000e+02,-8.810000000000000000e+02,-6.900000000000000000e+01,9.700000000000000000e+01,-8.900000000000000000e+01,0.000000000000000000e+00
5.999999999999999778e-01,2.794000000000000000e+03,-1.428700000000000000e+04,-1.020000000000000000e+03,5.800000000000000000e+02,1.460000000000000000e+03,-5.200000000000000000e+02,-7.300000000000000000e+01,9.700000000000000000e+01,-8.300000000000000000e+01,0.000000000000000000e+00
6.099999999999999867e-01,1.311000000000000000e+03,-8.516000000000000000e+03,-2.556000000000000000e+03,1.475000000000000000e+03,1.482000000000000000e+03,7.900000000000000000e+01,-7.300000000000000000e+01,9.700000000000000000e+01,-8.300000000000000000e+01,0.000000000000000000e+00
6.199999999999999956e-01,1.130000000000000000e+02,-5.132000000000000000e+03,-1.239000000000000000e+03,1.685000000000000000e+03,8.400000000000000000e+02,2.950000000000000000e+02,-7.600000000000000000e+01,9.800000000000000000e+01,-8.200000000000000000e+01,0.000000000000000000e+00
6.300000000000000044e-01,-8.600000000000000000e+01,-4.576000000000000000e+03,8.340000000000000000e+02,1.435000000000000000e+03,5.500000000000000000e+02,4.850000000000000000e+02,-7.600000000000000000e+01,9.800000000000000000e+01,-8.200000000000000000e+01,0.000000000000000000e+00
6.400000000000000133e-01,-3.300000000000000000e+02,-5.356000000000000000e+03,5.994000000000000000e+03,-2.140000000000000000e+02,1.142000000000000000e+03,7.310000000000000000e+02,-7.500000000000000000e+01,9.700000000000000000e+01,-8.500000000000000000e+01,0.000000000000000000e+00
6.500000000000000222e-01,-8.000000000000000000e+01,-6.973000000000000000e+03,2.749000000000000000e+03,-1.826000000000000000e+03,9.000000000000000000e+01,1.025000000000000000e+03,-7.500000000000000000e+01,9.700000000000000000e+01,-8.500000000000000000e+01,0.000000000000000000e+00
6.600000000000000311e-01,1.488000000000000000e+03,-7.061000000000000000e+03,-4.371000000000000000e+03,-1.930000000000000000e+03,1.072000000000000000e+03,1.183000000000000000e+03,-7.200000000000000000e+01,1.000000000000000000e+02,-9.000000000000000000e+01,0.000000000000000000e+00
6.700000000000000400e-01,-1.920000000000000000e+02,-7.254000000000000000e+03,-1.645000000000000000e+03,-3.700000000000000000e+01,6.300000000000000000e+02,1.118000000000000000e+03,-7.200000000000000000e+01,1.000000000000000000e+02,-9.000000000000000000e+01,0.000000000000000000e+00
6.800000000000000488e-01,-6.430000000000000000e+02,-5.743000000000000000e+03,-1.327000000000000000e+03,1.276000000000000000e+03,7.820000000000000000e+02,8.240000000000000000e+02,-7.600000000000000000e+01,9.600000000000000000e+01,-8.800000000000000000e+01,0.000000000000000000e+00
6.899999999999999467e-01,-2.940000000000000000e+02,-4.979000000000000000e+03,-2.010000000000000000e+02,1.753000000000000000e+03,8.570000000000000000e+02,4.630000000000000000e+02,-7.600000000000000000e+01,9.600000000000000000e+01,-8.800000000000000000e+01,0.000000000000000000e+00
6.999999999999999556e-01,1.550000000000000000e+02,-4.130000000000000000e+03,5.700000000000000000e+01,1.580000000000000000e+03,8.060000000000000000e+02,2.810000000000000000e+02,-6.900000000000000000e+01,9.700000000000000000e+01,-8.500000000000000000e+01,0.000000000000000000e+00
7.099999999999999645e-01,-1.460000000000000000e+02,-3.932000000000000000e+03,1.890000000000000000e+02,1.510000000000000000e+03,6.040000000000000000e+02,1.110000000000000000e+02,-6.900000000000000000e+01,9.700000000000000000e+01,-8.500000000000000000e+01,0.000000000000000000e+00
7.199999999999999734e-01,-3.640000000000000000e+02,-3.220000000000000000e+03,2.600000000000000000e+02,1.396000000000000000e+03,4.350000000000000000e+02,-7.800000000000000000e+01,-6.500000000000000000e+01,9.900000000000000000e+01,-9.500000000000000000e+01,0.000000000000000000e+00
7.299999999999999822e-01,-4.290000000000000000e+02,-1.654000000000000000e+03,6.250000000000000000e+02,1.567000000000000000e+03,4.450000000000000000e+02,-2.350000000000000000e+02,-6.500000000000000000e+01,9.900000000000000000e+01,-9.500000000000000000e+01,0.000000000000000000e+00
7.399999999999999911e-01,-2.360000000000000000e+02,-7.060000000000000000e+02,7.340000000000000000e+02,1.914000000000000000e+03,6.040000000000000000e+02,-4.020000000000000000e+02,-6.700000000000000000e+01,9.900000000000000000e+01,-9.900000000000000000e+01,0.000000000000000000e+00
7.500000000000000000e-01,-1.018000000000000000e+03,4.850000000000000000e+02,1.032000000000000000e+03,1.813000000000000000e+03,3.850000000000000000e+02,-5.890000000000000000e+02,-6.700000000000000000e+01,9.900000000000000000e+01,-9.900000000000000000e+01,0.000000000000000000e+00
7.600000000000000089e-01,-8.830000000000000000e+02,1.419000000000000000e+03,2.960000000000000000e+02,1.109000000000000000e+03,2.030000000000000000e+02,-9.420000000000000000e+02,-6.400000000000000000e+01,9.600000000000000000e+01,-1.040000000000000000e+02,0.000000000000000000e+00
7.700000000000000178e-01,-8.230000000000000000e+02,2.375000000000000000e+03,-6.470000000000000000e+02,9.300000000000000000e+02,-1.500000000000000000e+01,-1.300000000000000000e+03,-6.400000000000000000e+01,9.600000000000000000e+01,-1.040000000000000000e+02,0.000000000000000000e+00
7.800000000000000266e-01,-5.660000000000000000e+02,3.552000000000000000e+03,-4.260000000000000000e+02,9.700000000000000000e+02,-5.900000000000000000e+01,-1.546000000000000000e+03,-7.100000000000000000e+01,9.300000000000000000e+01,-1.050000000000000000e+02,0.000000000000000000e+00
7.900000000000000355e-01,-6.700000000000000000e+02,4.319000000000000000e+03,-1.550000000000000000e+02,6.060000000000000000e+02,-5.080000000000000000e+02,-1.819000000000000000e+03,-7.100000000000000000e+01,9.300000000000000000e+01,-1.050000000000000000e+02,0.000000000000000000e+00
8.000000000000000444e-01,-2.700000000000000000e+02,4.678000000000000000e+03,1.640000000000000000e+02,-6.830000000000000000e+02,-8.990000000000000000e+02,-1.991000000000000000e+03,-6.900000000000000000e+01,8.700000000000000000e+01,-1.090000000000000000e+02,0.000000000000000000e+00
8.100000000000000533e-01,-6.660000000000000000e+02,4.800000000000000000e+03,2.750000000000000000e+02,-2.571000000000000000e+03,-9.010000000000000000e+02,-2.077000000000000000e+03,-6.900000000000000000e+01,8.700000000000000000e+01,-1.090000000000000000e+02,0.000000000000000000e+00
8.199999999999999512e-01,-6.740000000000000000e+02,2.711000000000000000e+03,-1.604000000000000000e+03,-2.579000000000000000e+03,-7.240000000000000000e+02,-1.903000000000000000e+03,-7.600000000000000000e+01,9.400000000000000000e+01,-1.060000000000000000e+02,0.000000000000000000e+00
8.299999999999999600e-01,-9.270000000000000000e+02,1.799000000000000000e+03,-2.016000000000000000e+03,-1.766000000000000000e+03,-4.000000000000000000e+02,-1.683000000000000000e+03,-7.600000000000000000e+01,9.400000000000000000e+01,-1.060000000000000000e+02,0.000000000000000000e+00
8.399999999999999689e-01,-1.035000000000000000e+03,1.085000000000000000e+03,-1.284000000000000000e+03,-1.046000000000000000e+03,-1.290000000000000000e+02,-1.410000000000000000e+03,-8.500000000000000000e+01,8.500000000000000000e+01,-1.050000000000000000e+02,0.000000000000000000e+00
8.499999999999999778e-01,-7.595000000000000000e+03,5.220000000000000000e+02,5.625000000000000000e+03,1.182000000000000000e+03,2.361000000000000000e+03,-1.024000000000000000e+03,-8.500000000000000000e+01,8.500000000000000000e+01,-1.050000000000000000e+02,0.000000000000000000e+00
8.599999999999999867e-01,-7.420000000000000000e+02,4.742000000000000000e+03,1.366700000000000000e+04,6.320000000000000000e+02,4.100000000000000000e+02,-1.056000000000000000e+03,-8.400000000000000000e+01,8.600000000000000000e+01,-1.000000000000000000e+02,0.000000000000000000e+00
8.699999999999999956e-01,4.024000000000000000e+03,3.889000000000000000e+03,8.490000000000000000e+03,-4.797000000000000000e+03,1.510000000000000000e+03,-8.130000000000000000e+02,-8.400000000000000000e+01,8.600000000000000000e+01,-1.000000000000000000e+02,0.000000000000000000e+00
8.800000000000000044e-01,5.138000000000000000e+03,5.930000000000000000e+02,-3.620000000000000000e+02,-4.976000000000000000e+03,4.990000000000000000e+02,3.320000000000000000e+02,-8.500000000000000000e+01,8.300000000000000000e+01,-1.010000000000000000e+02,0.000000000000000000e+00
8.900000000000000133e-01,7.166000000000000000e+03,-3.705000000000000000e+03,5.090000000000000000e+03,-2.650000000000000000e+03,3.454000000000000000e+03,2.059000000000000000e+03,-8.500000000000000000e+01,8.300000000000000000e+01,-1.010000000000000000e+02,0.000000000000000000e+00
9.000000000000000222e-01,1.342400000000000000e+04,-1.161700000000000000e+04,1.207100000000000000e+04,-7.477000000000000000e+03,2.702000000000000000e+03,4.841000000000000000e+03,-8.100000000000000000e+01,8.500000000000000000e+01,-9.100000000000000000e+01,0.000000000000000000e+00
9.100000000000000311e-01,7.609000000000000000e+03,-1.899400000000000000e+04,-2.724000000000000000e+03,-5.612000000000000000e+03,2.500000000000000000e+02,6.583000000000000000e+03,-8.100000000000000000e+01,8.500000000000000000e+01,-9.100000000000000000e+01,0.000000000000000000e+00
9.200000000000000400e-01,-1.785000000000000000e+03,-1.991700000000000000e+04,1.070000000000000000e+02,-4.581000000000000000e+03,8.530000000000000000e+02,5.106000000000000000e+03,-7.600000000000000000e+01,9.400000000000000000e+01,-8.800000000000000000e+01,0.000000000000000000e+00
9.300000000000000488e-01,-7.880000000000000000e+03,-1.511600000000000000e+04,-5.663000000000000000e+03,-4.822000000000000000e+03,1.304000000000000000e+03,2.102000000000000000e+03,-7.600000000000000000e+01,9.400000000000000000e+01,-8.800000000000000000e+01,0.000000000000000000e+00
9.399999999999999467e-01,-1.511100000000000000e+04,-3.901000000000000000e+03,-4.927000000000000000e+03,2.444000000000000000e+03,-7.060000000000000000e+02,-9.060000000000000000e+02,-6.600000000000000000e+01,1.040000000000000000e+02,-7.600000000000000000e+01,0.000000000000000000e+00
9.499999999999999556e-01,-6.021000000000000000e+03,-3.261000000000000000e+03,8.200000000000000000e+01,5.255000000000000000e+03,7.580000000000000000e+02,-2.028000000000000000e+03,-6.600000000000000000e+01,1.040000000000000000e+02,-7.600000000000000000e+01,0.000000000000000000e+00
9.599999999999999645e-01,-2.089000000000000000e+03,-4.934000000000000000e+03,3.075000000000000000e+03,5.507000000000000000e+03,3.275000000000000000e+03,-1.323000000000000000e+03,-6.700000000000000000e+01,1.070000000000000000e+02,-8.100000000000000000e+01,0.000000000000000000e+00
9.699999999999999734e-01,8.829000000000000000e+03,-1.076500000000000000e+04,-2.818000000000000000e+03,5.652000000000000000e+03,4.580000000000000000e+02,-8.000000000000000000e+00,-6.700000000000000000e+01,1.070000000000000000e+02,-8.100000000000000000e+01,0.000000000000000000e+00
9.799999999999999822e-01,7.350000000000000000e+02,-1.023200000000000000e+04,6.700000000000000000e+03,1.595000000000000000e+03,-1.330000000000000000e+02,6.790000000000000000e+02,-6.600000000000000000e+01,1.000000000000000000e+02,-1.000000000000000000e+02,0.000000000000000000e+00
9.899999999999999911e-01,1.540000000000000000e+03,-1.002000000000000000e+04,4.070000000000000000e+03,-1.268000000000000000e+03,-8.090000000000000000e+02,4.150000000000000000e+02,-6.600000000000000000e+01,1.000000000000000000e+02,-1.000000000000000000e+02,0.000000000000000000e+00
1.000000000000000000e+00,1.229000000000000000e+03,-7.118000000000000000e+03,1.461000000000000000e+03,-2.583000000000000000e+03,-5.210000000000000000e+02,-1.900000000000000000e+02,-6.700000000000000000e+01,9.700000000000000000e+01,-9.900000000000000000e+01,0.000000000000000000e+00
1.010000000000000009e+00,2.103000000000000000e+03,-5.526000000000000000e+03,-2.731000000000000000e+03,-2.516000000000000000e+03,1.020000000000000000e+02,-6.290000000000000000e+02,-6.700000000000000000e+01,9.700000000000000000e+01,-9.900000000000000000e+01,0.000000000000000000e+00
1.020000000000000018e+00,2.481000000000000000e+03,-5.977000000000000000e+03,-3.267000000000000000e+03,-4.660000000000000000e+02,3.170000000000000000e+02,-9.970000000000000000e+02,-6.400000000000000000e+01,1.040000000000000000e+02,-9.600000000000000000e+01,0.000000000000000000e+00
1.030000000000000027e+00,2.577000000000000000e+03,-6.444000000000000000e+03,-6.750000000000000000e+02,9.580000000000000000e+02,4.000000000000000000e+02,-1.154000000000000000e+03,-6.400000000000000000e+01,1.040000000000000000e+02,-9.600000000000000000e+01,0.000000000000000000e+00
1.040000000000000036e+00,1.862000000000000000e+03,-6.979000000000000000e+03,9.270000000000000000e+02,1.238000000000000000e+03,1.380000000000000000e+02,-1.235000000000000000e+03,-6.900000000000000000e+01,9.900000000000000000e+01,-9.100000000000000000e+01,0.000000000000000000e+00
1.050000000000000044e+00,1.143000000000000000e+03,-6.843000000000000000e+03,1.297000000000000000e+03,1.185000000000000000e+03,-1.830000000000000000e+02,-1.177000000000000000e+03,-6.900000000000000000e+01,9.900000000000000000e+01,-9.100000000000000000e+01,0.000000000000000000e+00
1.060000000000000053e+00,8.450000000000000000e+02,-6.453000000000000000e+03,1.193000000000000000e+03,1.055000000000000000e+03,-3.770000000000000000e+02,-9.830000000000000000e+02,-6.700000000000000000e+01,1.010000000000000000e+02,-9.100000000000000000e+01,0.000000000000000000e+00
1.070000000000000062e+00,6.260000000000000000e+02,-5.206000000000000000e+03,-1.690000000000000000e+02,7.880000000000000000e+02,-7.430000000000000000e+02,-8.130000000000000000e+02,-6.700000000000000000e+01,1.010000000000000000e+02,-9.100000000000000000e+01,0.000000000000000000e+00
1.080000000000000071e+00,-8.800000000000000000e+01,-4.293000000000000000e+03,-9.780000000000000000e+02,8.690000000000000000e+02,-1.189000000000000000e+03,-5.990000000000000000e+02,-6.700000000000000000e+01,9.700000000000000000e+01,-9.900000000000000000e+01,0.000000000000000000e+00
1.090000000000000080e+00,-1.713000000000000000e+03,-3.890000000000000000e+03,-2.640000000000000000e+02,9.580000000000000000e+02,-4.400000000000000000e+02,-3.460000000000000000e+02,-6.700000000000000000e+01,9.700000000000000000e+01,-9.900000000000000000e+01,0.000000000000000000e+00
1.100000000000000089e+00,-9.160000000000000000e+02,-3.735000000000000000e+03,-6.830000000000000000e+02,1.033000000000000000e+03,-1.140000000000000000e+02,-1.520000000000000000e+02,-7.500000000000000000e+01,9.500000000000000000e+01,-9.500000000000000000e+01,0.000000000000000000e+00
1.110000000000000098e+00,-1.237000000000000000e+03,-3.092000000000000000e+03,-2.410000000000000000e+02,1.691000000000000000e+03,-3.460000000000000000e+02,8.400000000000000000e+01,-7.500000000000000000e+01,9.500000000000000000e+01,-9.500000000000000000e+01,0.000000000000000000e+00
1.120000000000000107e+00,-8.230000000000000000e+02,-2.265000000000000000e+03,1.290000000000000000e+02,2.504000000000000000e+03,-6.020000000000000000e+02,2.700000000000000000e+02,-7.400000000000000000e+01,9.400000000000000000e+01,-1.000000000000000000e+02,0.000000000000000000e+00
1.129999999999999893e+00,-4.010000000000000000e+02,-7.370000000000000000e+02,7.170000000000000000e+02,2.976000000000000000e+03,-6.860000000000000000e+02,5.620000000000000000e+02,-7.400000000000000000e+01,9.400000000000000000e+01,-1.000000000000000000e+02,0.000000000000000000e+00
1.139999999999999902e+00,-5.800000000000000000e+02,4.290000000000000000e+02,8.660000000000000000e+02,3.139000000000000000e+03,-1.530000000000000000e+02,8.700000000000000000e+02,-6.900000000000000000e+01,9.100000000000000000e+01,-1.010000000000000000e+02,0.000000000000000000e+00
1.149999999999999911e+00,-9.770000000000000000e+02,1.370000000000000000e+03,8.150000000000000000e+02,3.109000000000000000e+03,2.650000000000000000e+02,1.124000000000000000e+03,-6.900000000000000000e+01,9.100000000000000000e+01,-1.010000000000000000e+02,0.000000000000000000e+00
1.159999999999999920e+00,-8.870000000000000000e+02,2.225000000000000000e+03,6.560000000000000000e+02,2.846000000000000000e+03,4.750000000000000000e+02,1.372000000000000000e+03,-7.100000000000000000e+01,8.700000000000000000e+01,-1.110000000000000000e+02,0.000000000000000000e+00
1.169999999999999929e+00,-1.132000000000000000e+03,3.028000000000000000e+03,3.510000000000000000e+02,2.429000000000000000e+03,1.610000000000000000e+02,1.677000000000000000e+03,-7.100000000000000000e+01,8.700000000000000000e+01,-1.110000000000000000e+02,0.000000000000000000e+00
1.179999999999999938e+00,-1.877000000000000000e+03,3.454000000000000000e+03,5.720000000000000000e+02,1.643000000000000000e+03,-5.740000000000000000e+02,1.857000000000000000e+03,-6.900000000000000000e+01,9.100000000000000000e+01,-1.150000000000000000e+02,0.000000000000000000e+00
1.189999999999999947e+00,-1.476000000000000000e+03,3.621000000000000000e+03,1.127000000000000000e+03,8.490000000000000000e+02,-1.260000000000000000e+02,1.865000000000000000e+03,-6.900000000000000000e+01,9.100000000000000000e+01,-1.150000000000000000e+02,0.000000000000000000e+00
1.199999999999999956e+00,-9.440000000000000000e+02,3.912000000000000000e+03,2.910000000000000000e+02,-3.650000000000000000e+02,7.890000000000000000e+02,1.795000000000000000e+03,-6.700000000000000000e+01,9.300000000000000000e+01,-1.190000000000000000e+02,0.000000000000000000e+00
1.209999999999999964e+00,4.710000000000000000e+02,3.606000000000000000e+03,-1.510000000000000000e+02,-1.325000000000000000e+03,4.890000000000000000e+02,1.553000000000000000e+03,-6.700000000000000000e+01,9.300000000000000000e+01,-1.190000000000000000e+02,0.000000000000000000e+00
1.219999999999999973e+00,6.420000000000000000e+02,2.921000000000000000e+03,-4.880000000000000000e+02,-2.058000000000000000e+03,2.000000000000000000e+02,1.352000000000000000e+03,-6.700000000000000000e+01,9.300000000000000000e+01,-1.210000000000000000e+02,0.000000000000000000e+00
1.229999999999999982e+00,3.960000000000000000e+02,2.229000000000000000e+03,-6.020000000000000000e+02,-1.924000000000000000e+03,-2.540000000000000000e+02,1.119000000000000000e+03,-6.700000000000000000e+01,9.300000000000000000e+01,-1.210000000000000000e+02,0.000000000000000000e+00
1.239999999999999991e+00,4.134000000000000000e+03,3.024000000000000000e+03,1.829000000000000000e+03,-6.280000000000000000e+02,-2.833000000000000000e+03,7.470000000000000000e+02,-5.700000000000000000e+01,9.700000000000000000e+01,-1.150000000000000000e+02,0.000000000000000000e+00
1.250000000000000000e+00,9.260000000000000000e+02,2.358000000000000000e+03,1.468600000000000000e+04,7.600000000000000000e+01,-1.638000000000000000e+03,6.690000000000000000e+02,-5.700000000000000000e+01,9.700000000000000000e+01,-1.150000000000000000e+02,0.000000000000000000e+00
1.260000000000000009e+00,-3.915000000000000000e+03,4.922000000000000000e+03,5.537000000000000000e+03,-4.496000000000000000e+03,-1.542000000000000000e+03,3.900000000000000000e+02,-6.200000000000000000e+01,1.000000000000000000e+02,-1.140000000000000000e+02,0.000000000000000000e+00
1.270000000000000018e+00,-4.701000000000000000e+03,1.090000000000000000e+03,-1.470000000000000000e+02,-4.580000000000000000e+03,-1.739000000000000000e+03,-9.160000000000000000e+02,-6.200000000000000000e+01,1.000000000000000000e+02,-1.140000000000000000e+02,0.000000000000000000e+00
1.280000000000000027e+00,-2.128000000000000000e+03,-9.250000000000000000e+02,-3.590000000000000000e+02,-4.337000000000000000e+03,-1.967000000000000000e+03,-2.378000000000000000e+03,-6.000000000000000000e+01,1.020000000000000000e+02,-1.000000000000000000e+02,0.000000000000000000e+00
1.290000000000000036e+00,2.184000000000000000e+03,-4.582000000000000000e+03,2.064000000000000000e+03,-3.766000000000000000e+03,-2.707000000000000000e+03,-3.572000000000000000e+03,-6.000000000000000000e+01,1.020000000000000000e+02,-1.000000000000000000e+02,0.000000000000000000e+00
1.300000000000000044e+00,3.180000000000000000e+02,-1.391800000000000000e+04,7.557000000000000000e+03,-2.762000000000000000e+03,-2.783000000000000000e+03,-4.721000000000000000e+03,-6.400000000000000000e+01,1.080000000000000000e+02,-9.000000000000000000e+01,0.000000000000000000e+00
1.310000000000000053e+00,5.596000000000000000e+03,-2.258100000000000000e+04,2.354000000000000000e+03,-2.703000000000000000e+03,2.718000000000000000e+03,-4.838000000000000000e+03,-6.400000000000000000e+01,1.080000000000000000e+02,-9.000000000000000000e+01,0.000000000000000000e+00
1.320000000000000062e+00,2.263800000000000000e+04,-2.077800000000000000e+04,-6.000000000000000000e+00,-3.755000000000000000e+03,-1.075000000000000000e+03,-2.436000000000000000e+03,-7.200000000000000000e+01,1.000000000000000000e+02,-8.400000000000000000e+01,0.000000000000000000e+00
1.330000000000000071e+00,6.201000000000000000e+03,-5.143000000000000000e+03,-5.238000000000000000e+03,2.290000000000000000e+03,2.560000000000000000e+02,-3.320000000000000000e+02,-7.200000000000000000e+01,1.000000000000000000e+02,-8.400000000000000000e+01,0.000000000000000000e+00
1.340000000000000080e+00,4.459000000000000000e+03,-3.243000000000000000e+03,1.481000000000000000e+03,6.013000000000000000e+03,1.671000000000000000e+03,-4.940000000000000000e+02,-8.100000000000000000e+01,9.300000000000000000e+01,-7.900000000000000000e+01,0.000000000000000000e+00
1.350000000000000089e+00,1.630000000000000000e+03,-4.233000000000000000e+03,1.744400000000000000e+04,2.826000000000000000e+03,8.050000000000000000e+02,-6.180000000000000000e+02,-8.100000000000000000e+01,9.300000000000000000e+01,-7.900000000000000000e+01,0.000000000000000000e+00
1.360000000000000098e+00,-1.436000000000000000e+03,-9.065000000000000000e+03,3.367000000000000000e+03,-3.520000000000000000e+03,2.208000000000000000e+03,-1.042000000000000000e+03,-8.700000000000000000e+01,8.700000000000000000e+01,-9.100000000000000000e+01,0.000000000000000000e+00
1.370000000000000107e+00,3.210000000000000000e+03,-1.116600000000000000e+04,-9.330000000000000000e+02,-3.706000000000000000e+03,1.687000000000000000e+03,-9.610000000000000000e+02,-8.700000000000000000e+01,8.700000000000000000e+01,-9.100000000000000000e+01,0.000000000000000000e+00
1.379999999999999893e+00,1.284000000000000000e+03,-1.259100000000000000e+04,-2.460000000000000000e+03,-1.288000000000000000e+03,1.666000000000000000e+03,-4.710000000000000000e+02,-8.500000000000000000e+01,9.100000000000000000e+01,-8.700000000000000000e+01,0.000000000000000000e+00
1.389999999999999902e+00,1.226000000000000000e+03,-1.047900000000000000e+04,-3.961000000000000000e+03,6.060000000000000000e+02,2.044000000000000000e+03,3.200000000000000000e+01,-8.500000000000000000e+01,9.100000000000000000e+01,-8.700000000000000000e+01,0.000000000000000000e+00
1.399999999999999911e+00,-3.450000000000000000e+02,-6.864000000000000000e+03,-2.691000000000000000e+03,1.460000000000000000e+03,1.666000000000000000e+03,2.260000000000000000e+02,-8.400000000000000000e+01,8.800000000000000000e+01,-8.800000000000000000e+01,0.000000000000000000e+00
1.409999999999999920e+00,-3.320000000000000000e+02,-5.421000000000000000e+03,-7.790000000000000000e+02,1.634000000000000000e+03,1.189000000000000000e+03,4.010000000000000000e+02,-8.400000000000000000e+01,8.800000000000000000e+01,-8.800000000000000000e+01,0.000000000000000000e+00
1.419999999999999929e+00,-6.810000000000000000e+02,-5.134000000000000000e+03,1.071000000000000000e+03,1.501000000000000000e+03,9.940000000000000000e+02,4.860000000000000000e+02,-7.700000000000000000e+01,9.300000000000000000e+01,-9.100000000000000000e+01,0.000000000000000000e+00
1.429999999999999938e+00,-1.716000000000000000e+03,-4.651000000000000000e+03,1.044000000000000000e+03,7.690000000000000000e+02,1.394000000000000000e+03,6.540000000000000000e+02,-7.700000000000000000e+01,9.300000000000000000e+01,-9.100000000000000000e+01,0.000000000000000000e+00
1.439999999999999947e+00,-2.020000000000000000e+02,-5.419000000000000000e+03,2.171000000000000000e+03,-1.800000000000000000e+01,8.580000000000000000e+02,8.220000000000000000e+02,-8.100000000000000000e+01,8.900000000000000000e+01,-9.900000000000000000e+01,0.000000000000000000e+00
1.449999999999999956e+00,-1.576000000000000000e+03,-5.619000000000000000e+03,2.157000000000000000e+03,-1.008000000000000000e+03,7.220000000000000000e+02,9.340000000000000000e+02,-8.100000000000000000e+01,8.900000000000000000e+01,-9.900000000000000000e+01,0.000000000000000000e+00
1.459999999999999964e+00,-1.738000000000000000e+03,-6.174000000000000000e+03,8.870000000000000000e+02,-1.233000000000000000e+03,1.121000000000000000e+03,8.200000000000000000e+02,-8.300000000000000000e+01,9.100000000000000000e+01,-9.700000000000000000e+01,0.000000000000000000e+00
1.469999999999999973e+00,-1.815000000000000000e+03,-6.366000000000000000e+03,-2.610000000000000000e+02,-7.210000000000000000e+02,1.132000000000000000e+03,6.070000000000000000e+02,-8.300000000000000000e+01,9.100000000000000000e+01,-9.700000000000000000e+01,0.000000000000000000e+00
1.479999999999999982e+00,-1.313000000000000000e+03,-5.789000000000000000e+03,-1.150000000000000000e+03,-1.700000000000000000e+01,1.011000000000000000e+03,3.610000000000000000e+02,-7.500000000000000000e+01,9.700000000000000000e+01,-9.700000000000000000e+01,0.000000000000000000e+00
1.489999999999999991e+00,-9.960000000000000000e+02,-5.545000000000000000e+03,-1.084000000000000000e+03,6.760000000000000000e+02,7.220000000000000000e+02,1.170000000000000000e+02,-7.500000000000000000e+01,9.700000000000000000e+01,-9.700000000000000000e+01,0.000000000000000000e+00
1.500000000000000000e+00,-5.660000000000000000e+02,-4.291000000000000000e+03,-9.860000000000000000e+02,1.557000000000000000e+03,4.360000000000000000e+02,-5.500000000000000000e+01,-7.400000000000000000e+01,9.200000000000000000e+01,-1.000000000000000000e+02,0.000000000000000000e+00
1.510000000000000009e+00,8.200000000000000000e+01,-2.397000000000000000e+03,-5.980000000000000000e+02,2.486000000000000000e+03,3.270000000000000000e+02,-1.530000000000000000e+02,-7.400000000000000000e+01,9.200000000000000000e+01,-1.000000000000000000e+02,0.000000000000000000e+00
1.520000000000000018e+00,3.330000000000000000e+02,-8.900000000000000000e+02,2.020000000000000000e+02,3.004000000000000000e+03,3.650000000000000000e+02,-2.350000000000000000e+02,-8.000000000000000000e+01,9.400000000000000000e+01,-1.060000000000000000e+02,0.000000000000000000e+00
1.530000000000000027e+00,2.260000000000000000e+02,6.230000000000000000e+02,9.040000000000000000e+02,2.928000000000000000e+03,1.127000000000000000e+03,-3.480000000000000000e+02,-8.000000000000000000e+01,9.400000000000000000e+01,-1.060000000000000000e+02,0.000000000000000000e+00
1.540000000000000036e+00,-5.650000000000000000e+02,1.652000000000000000e+03,1.946000000000000000e+03,2.352000000000000000e+03,1.370000000000000000e+02,-7.030000000000000000e+02,-7.300000000000000000e+01,9.100000000000000000e+01,-1.110000000000000000e+02,0.000000000000000000e+00
1.550000000000000044e+00,-2.700000000000000000e+02,2.541000000000000000e+03,8.890000000000000000e+02,1.097000000000000000e+03,6.700000000000000000e+01,-9.560000000000000000e+02,-7.300000000000000000e+01,9.100000000000000000e+01,-1.110000000000000000e+02,0.000000000000000000e+00
1.560000000000000053e+00,-1.830000000000000000e+02,3.536000000000000000e+03,-2.390000000000000000e+02,6.530000000000000000e+02,-3.300000000000000000e+01,-1.259000000000000000e+03,-7.300000000000000000e+01,8.700000000000000000e+01,-1.190000000000000000e+02,0.000000000000000000e+00
1.570000000000000062e+00,4.230000000000000000e+02,4.412000000000000000e+03,-1.198000000000000000e+03,5.970000000000000000e+02,-3.650000000000000000e+02,-1.584000000000000000e+03,-7.300000000000000000e+01,8.700000000000000000e+01,-1.190000000000000000e+02,0.000000000000000000e+00
1.580000000000000071e+00,-4.900000000000000000e+01,5.103000000000000000e+03,-8.130000000000000000e+02,6.600000000000000000e+01,-7.540000000000000000e+02,-1.849000000000000000e+03,-7.700000000000000000e+01,8.700000000000000000e+01,-1.190000000000000000e+02,0.000000000000000000e+00
1.590000000000000080e+00,-2.880000000000000000e+02,5.061000000000000000e+03,-4.500000000000000000e+01,-1.397000000000000000e+03,-8.790000000000000000e+02,-2.004000000000000000e+03,-7.700000000000000000e+01,8.700000000000000000e+01,-1.190000000000000000e+02,0.000000000000000000e+00
1.600000000000000089e+00,-2.010000000000000000e+02,3.752000000000000000e+03,-6.210000000000000000e+02,-2.743000000000000000e+03,-9.140000000000000000e+02,-1.901000000000000000e+03,-8.300000000000000000e+01,8.100000000000000000e+01,-1.150000000000000000e+02,0.000000000000000000e+00
1.610000000000000098e+00,-1.282000000000000000e+03,2.628000000000000000e+03,-1.387000000000000000e+03,-2.351000000000000000e+03,-5.630000000000000000e+02,-1.676000000000000000e+03,-8.300000000000000000e+01,8.100000000000000000e+01,-1.150000000000000000e+02,0.000000000000000000e+00
1.620000000000000107e+00,-9.620000000000000000e+02,1.959000000000000000e+03,-1.792000000000000000e+03,-1.825000000000000000e+03,1.410000000000000000e+02,-1.408000000000000000e+03,-8.900000000000000000e+01,7.700000000000000000e+01,-1.130000000000000000e+02,0.000000000000000000e+00
1.629999999999999893e+00,-3.664000000000000000e+03,1.398000000000000000e+03,2.300000000000000000e+02,-2.730000000000000000e+02,1.663000000000000000e+03,-1.094000000000000000e+03,-8.900000000000000000e+01,7.700000000000000000e+01,-1.130000000000000000e+02,0.000000000000000000e+00
1.639999999999999902e+00,-3.365000000000000000e+03,3.039000000000000000e+03,9.099000000000000000e+03,2.972000000000000000e+03,1.510000000000000000e+03,-1.147000000000000000e+03,-8.700000000000000000e+01,7.900000000000000000e+01,-1.090000000000000000e+02,0.000000000000000000e+00
1.649999999999999911e+00,1.457000000000000000e+03,5.677000000000000000e+03,1.045700000000000000e+04,-3.301000000000000000e+03,1.700000000000000000e+03,-1.358000000000000000e+03,-8.700000000000000000e+01,7.900000000000000000e+01,-1.090000000000000000e+02,0.000000000000000000e+00
1.659999999999999920e+00,4.629000000000000000e+03,2.300000000000000000e+03,9.360000000000000000e+02,-6.959000000000000000e+03,8.030000000000000000e+02,-2.730000000000000000e+02,-9.500000000000000000e+01,7.900000000000000000e+01,-1.070000000000000000e+02,0.000000000000000000e+00
1.669999999999999929e+00,5.385000000000000000e+03,-2.431000000000000000e+03,-3.399000000000000000e+03,-4.963000000000000000e+03,1.849000000000000000e+03,1.137000000000000000e+03,-9.500000000000000000e+01,7.900000000000000000e+01,-1.070000000000000000e+02,0.000000000000000000e+00
1.679999999999999938e+00,8.220000000000000000e+03,-7.247000000000000000e+03,8.499000000000000000e+03,-3.223000000000000000e+03,4.562000000000000000e+03,3.073000000000000000e+03,-9.000000000000000000e+01,8.200000000000000000e+01,-1.040000000000000000e+02,0.000000000000000000e+00
1.689999999999999947e+00,1.362400000000000000e+04,-1.892400000000000000e+04,5.293000000000000000e+03,-6.979000000000000000e+03,1.432000000000000000e+03,5.818000000000000000e+03,-9.000000000000000000e+01,8.200000000000000000e+01,-1.040000000000000000e+02,0.000000000000000000e+00
1.699999999999999956e+00,3.565000000000000000e+03,-2.310400000000000000e+04,-1.958000000000000000e+03,-5.231000000000000000e+03,-1.169000000000000000e+03,5.163000000000000000e+03,-8.500000000000000000e+01,8.900000000000000000e+01,-1.050000000000000000e+02,0.000000000000000000e+00
1.709999999999999964e+00,-7.618000000000000000e+03,-1.851900000000000000e+04,-2.788000000000000000e+03,-5.432000000000000000e+03,-4.250000000000000000e+02,2.917000000000000000e+03,-8.500000000000000000e+01,8.900000000000000000e+01,-1.050000000000000000e+02,0.000000000000000000e+00
1.719999999999999973e+00,-1.354300000000000000e+04,-3.168000000000000000e+03,-1.094400000000000000e+04,-5.710000000000000000e+02,4.540000000000000000e+02,1.462000000000000000e+03,-7.200000000000000000e+01,1.020000000000000000e+02,-9.200000000000000000e+01,0.000000000000000000e+00
1.729999999999999982e+00,-7.029000000000000000e+03,-2.020000000000000000e+03,-2.799000000000000000e+03,3.522000000000000000e+03,1.006000000000000000e+03,-1.339000000000000000e+03,-7.200000000000000000e+01,1.020000000000000000e+02,-9.200000000000000000e+01,0.000000000000000000e+00
1.739999999999999991e+00,-3.571000000000000000e+03,-2.591000000000000000e+03,1.290000000000000000e+03,5.953000000000000000e+03,1.493000000000000000e+03,-1.691000000000000000e+03,-6.400000000000000000e+01,1.020000000000000000e+02,-9.200000000000000000e+01,0.000000000000000000e+00
1.750000000000000000e+00,5.560000000000000000e+02,-7.733000000000000000e+03,4.229000000000000000e+03,5.450000000000000000e+03,3.751000000000000000e+03,-7.640000000000000000e+02,-6.400000000000000000e+01,1.020000000000000000e+02,-9.200000000000000000e+01,0.000000000000000000e+00
1.760000000000000009e+00,6.972000000000000000e+03,-1.252700000000000000e+04,1.196000000000000000e+04,3.651000000000000000e+03,-7.000000000000000000e+02,2.880000000000000000e+02,-6.600000000000000000e+01,9.800000000000000000e+01,-1.040000000000000000e+02,0.000000000000000000e+00
1.770000000000000018e+00,2.066000000000000000e+03,-1.136300000000000000e+04,5.553000000000000000e+03,-8.410000000000000000e+02,-5.280000000000000000e+02,2.640000000000000000e+02,-6.600000000000000000e+01,9.800000000000000000e+01,-1.040000000000000000e+02,0.000000000000000000e+00
1.780000000000000027e+00,1.114000000000000000e+03,-7.111000000000000000e+03,1.425000000000000000e+03,-1.961000000000000000e+03,-8.080000000000000000e+02,-3.110000000000000000e+02,-6.600000000000000000e+01,1.000000000000000000e+02,-1.100000000000000000e+02,0.000000000000000000e+00
1.790000000000000036e+00,1.731000000000000000e+03,-6.276000000000000000e+03,-1.367000000000000000e+03,-2.536000000000000000e+03,-1.860000000000000000e+02,-6.800000000000000000e+02,-6.600000000000000000e+01,1.000000000000000000e+02,-1.100000000000000000e+02,0.000000000000000000e+00
1.800000000000000044e+00,2.260000000000000000e+03,-7.067000000000000000e+03,-2.457000000000000000e+03,-1.772000000000000000e+03,1.540000000000000000e+02,-9.480000000000000000e+02,-6.800000000000000000e+01,9.600000000000000000e+01,-1.100000000000000000e+02,0.000000000000000000e+00
1.810000000000000053e+00,1.868000000000000000e+03,-7.062000000000000000e+03,-1.962000000000000000e+03,-4.770000000000000000e+02,3.970000000000000000e+02,-1.075000000000000000e+03,-6.800000000000000000e+01,9.600000000000000000e+01,-1.100000000000000000e+02,0.000000000000000000e+00
1.820000000000000062e+00,8.900000000000000000e+02,-7.333000000000000000e+03,-7.990000000000000000e+02,4.630000000000000000e+02,3.580000000000000000e+02,-1.225000000000000000e+03,-6.700000000000000000e+01,9.700000000000000000e+01,-1.010000000000000000e+02,0.000000000000000000e+00
1.830000000000000071e+00,3.210000000000000000e+02,-7.493000000000000000e+03,2.230000000000000000e+02,1.052000000000000000e+03,-1.360000000000000000e+02,-1.409000000000000000e+03,-6.700000000000000000e+01,9.700000000000000000e+01,-1.010000000000000000e+02,0.000000000000000000e+00
1.840000000000000080e+00,-1.490000000000000000e+02,-7.269000000000000000e+03,7.700000000000000000e+02,1.303000000000000000e+03,-2.560000000000000000e+02,-1.422000000000000000e+03,-7.000000000000000000e+01,9.600000000000000000e+01,-1.080000000000000000e+02,0.000000000000000000e+00
1.850000000000000089e+00,8.600000000000000000e+02,-6.233000000000000000e+03,4.730000000000000000e+02,1.419000000000000000e+03,-3.970000000000000000e+02,-1.343000000000000000e+03,-7.000000000000000000e+01,9.600000000000000000e+01,-1.080000000000000000e+02,0.000000000000000000e+00
1.860000000000000098e+00,1.056000000000000000e+03,-4.704000000000000000e+03,-2.410000000000000000e+02,1.284000000000000000e+03,-4.110000000000000000e+02,-1.135000000000000000e+03,-7.400000000000000000e+01,9.400000000000000000e+01,-1.100000000000000000e+02,0.000000000000000000e+00
1.870000000000000107e+00,6.900000000000000000e+02,-4.369000000000000000e+03,-1.620000000000000000e+02,1.084000000000000000e+03,-5.390000000000000000e+02,-8.200000000000000000e+02,-7.400000000000000000e+01,9.400000000000000000e+01,-1.100000000000000000e+02,0.000000000000000000e+00
1.879999999999999893e+00,-1.940000000000000000e+02,-4.285000000000000000e+03,-2.320000000000000000e+02,9.280000000000000000e+02,-7.000000000000000000e+00,-3.680000000000000000e+02,-7.500000000000000000e+01,8.700000000000000000e+01,-1.110000000000000000e+02,0.000000000000000000e+00
1.889999999999999902e+00,6.870000000000000000e+02,-3.963000000000000000e+03,-1.050000000000000000e+02,1.120000000000000000e+03,-1.480000000000000000e+02,-1.100000000000000000e+01,-7.500000000000000000e+01,8.700000000000000000e+01,-1.110000000000000000e+02,0.000000000000000000e+00
1.899999999999999911e+00,6.070000000000000000e+02,-3.935000000000000000e+03,3.630000000000000000e+02,1.204000000000000000e+03,-1.750000000000000000e+02,3.220000000000000000e+02,-7.700000000000000000e+01,8.900000000000000000e+01,-1.090000000000000000e+02,0.000000000000000000e+00
1.909999999999999920e+00,4.590000000000000000e+02,-3.196000000000000000e+03,3.530000000000000000e+02,1.373000000000000000e+03,-1.000000000000000000e+02,6.500000000000000000e+02,-7.700000000000000000e+01,8.900000000000000000e+01,-1.090000000000000000e+02,0.000000000000000000e+00
1.919999999999999929e+00,4.100000000000000000e+01,-2.301000000000000000e+03,4.700000000000000000e+01,1.889000000000000000e+03,-2.640000000000000000e+02,9.220000000000000000e+02,-8.400000000000000000e+01,8.800000000000000000e+01,-1.100000000000000000e+02,0.000000000000000000e+00
1.929999999999999938e+00,-5.860000000000000000e+02,-1.072000000000000000e+03,-1.580000000000000000e+02,2.761000000000000000e+03,-6.790000000000000000e+02,1.258000000000000000e+03,-8.400000000000000000e+01,8.800000000000000000e+01,-1.100000000000000000e+02,0.000000000000000000e+00
1.939999999999999947e+00,-1.356000000000000000e+03,6.170000000000000000e+02,1.400000000000000000e+02,3.495000000000000000e+03,-9.380000000000000000e+02,1.553000000000000000e+03,-7.300000000000000000e+01,7.900000000000000000e+01,-1.130000000000000000e+02,0.000000000000000000e+00
1.949999999999999956e+00,-2.044000000000000000e+03,2.081000000000000000e+03,5.440000000000000000e+02,3.759000000000000000e+03,-2.020000000000000000e+02,1.775000000000000000e+03,-7.300000000000000000e+01,7.900000000000000000e+01,-1.130000000000000000e+02,0.000000000000000000e+00
1.959999999999999964e+00,-2.505000000000000000e+03,2.918000000000000000e+03,6.010000000000000000e+02,3.856000000000000000e+03,6.050000000000000000e+02,1.876000000000000000e+03,-7.300000000000000000e+01,8.700000000000000000e+01,-1.190000000000000000e+02,0.000000000000000000e+00
1.969999999999999973e+00,-1.903000000000000000e+03,3.659000000000000000e+03,6.460000000000000000e+02,3.513000000000000000e+03,9.130000000000000000e+02,1.933000000000000000e+03,-7.300000000000000000e+01,8.700000000000000000e+01,-1.190000000000000000e+02,0.000000000000000000e+00
1.979999999999999982e+00,-1.373000000000000000e+03,4.121000000000000000e+03,1.016000000000000000e+03,2.826000000000000000e+03,5.830000000000000000e+02,1.944000000000000000e+03,-6.900000000000000000e+01,8.700000000000000000e+01,-1.310000000000000000e+02,0.000000000000000000e+00
1.989999999999999991e+00,-1.242000000000000000e+03,4.812000000000000000e+03,6.100000000000000000e+02,5.440000000000000000e+02,4.970000000000000000e+02,1.764000000000000000e+03,-6.900000000000000000e+01,8.700000000000000000e+01,-1.310000000000000000e+02,0.000000000000000000e+00
2.000000000000000000e+00,-3.910000000000000000e+02,4.128000000000000000e+03,3.200000000000000000e+02,-1.441000000000000000e+03,4.750000000000000000e+02,1.577000000000000000e+03,-6.900000000000000000e+01,8.500000000000000000e+01,-1.310000000000000000e+02,0.000000000000000000e+00
2.009999999999999787e+00,-9.000000000000000000e+00,3.088000000000000000e+03,-4.630000000000000000e+02,-2.294000000000000000e+03,3.560000000000000000e+02,1.379000000000000000e+03,-6.900000000000000000e+01,8.500000000000000000e+01,-1.310000000000000000e+02,0.000000000000000000e+00
2.020000000000000018e+00,9.800000000000000000e+01,2.382000000000000000e+03,-1.104000000000000000e+03,-2.237000000000000000e+03,1.860000000000000000e+02,1.150000000000000000e+03,-6.000000000000000000e+01,9.400000000000000000e+01,-1.360000000000000000e+02,0.000000000000000000e+00
2.029999999999999805e+00,2.800000000000000000e+01,1.954000000000000000e+03,-9.460000000000000000e+02,-1.704000000000000000e+03,-7.900000000000000000e+01,8.320000000000000000e+02,-6.000000000000000000e+01,9.400000000000000000e+01,-1.360000000000000000e+02,0.000000000000000000e+00
2.040000000000000036e+00,7.730000000000000000e+02,2.066000000000000000e+03,5.730000000000000000e+02,-1.126000000000000000e+03,6.840000000000000000e+02,4.110000000000000000e+02,-6.400000000000000000e+01,9.200000000000000000e+01,-1.240000000000000000e+02,0.000000000000000000e+00
2.049999999999999822e+00,8.709000000000000000e+03,1.549000000000000000e+03,1.342000000000000000e+04,-2.430000000000000000e+02,-4.728000000000000000e+03,-1.990000000000000000e+02,-6.400000000000000000e+01,9.200000000000000000e+01,-1.240000000000000000e+02,0.000000000000000000e+00
2.060000000000000053e+00,1.065000000000000000e+03,3.938000000000000000e+03,9.995000000000000000e+03,-2.203000000000000000e+03,-2.122000000000000000e+03,1.530000000000000000e+02,-5.800000000000000000e+01,9.800000000000000000e+01,-1.260000000000000000e+02,0.000000000000000000e+00
2.069999999999999840e+00,-3.025000000000000000e+03,1.695000000000000000e+03,4.389000000000000000e+03,-3.341000000000000000e+03,-2.146000000000000000e+03,-7.500000000000000000e+02,-5.800000000000000000e+01,9.800000000000000000e+01,-1.260000000000000000e+02,0.000000000000000000e+00
2.080000000000000071e+00,-1.707000000000000000e+03,-9.600000000000000000e+02,2.855000000000000000e+03,-4.572000000000000000e+03,-1.778000000000000000e+03,-2.063000000000000000e+03,-6.500000000000000000e+01,1.030000000000000000e+02,-1.170000000000000000e+02,0.000000000000000000e+00
2.089999999999999858e+00,-3.620000000000000000e+03,-8.562000000000000000e+03,6.737000000000000000e+03,-4.075000000000000000e+03,-2.507000000000000000e+03,-3.716000000000000000e+03,-6.500000000000000000e+01,1.030000000000000000e+02,-1.170000000000000000e+02,0.000000000000000000e+00
2.100000000000000089e+00,-2.170000000000000000e+03,-2.242600000000000000e+04,9.273000000000000000e+03,-3.679000000000000000e+03,1.431000000000000000e+03,-6.051000000000000000e+03,-6.600000000000000000e+01,1.000000000000000000e+02,-1.080000000000000000e+02,0.000000000000000000e+00
2.109999999999999876e+00,1.530300000000000000e+04,-2.385500000000000000e+04,1.218000000000000000e+03,-5.256000000000000000e+03,-4.220000000000000000e+02,-4.381000000000000000e+03,-6.600000000000000000e+01,1.000000000000000000e+02,-1.080000000000000000e+02,0.000000000000000000e+00
2.120000000000000107e+00,1.278300000000000000e+04,-1.187500000000000000e+04,-7.702000000000000000e+03,-1.380000000000000000e+02,-2.310000000000000000e+02,-6.840000000000000000e+02,-8.000000000000000000e+01,9.600000000000000000e+01,-9.600000000000000000e+01,0.000000000000000000e+00
2.129999999999999893e+00,5.105000000000000000e+03,-2.282000000000000000e+03,-2.708000000000000000e+03,4.874000000000000000e+03,1.743000000000000000e+03,-3.870000000000000000e+02,-8.000000000000000000e+01,9.600000000000000000e+01,-9.600000000000000000e+01,0.000000000000000000e+00
2.140000000000000124e+00,1.917000000000000000e+03,-2.302000000000000000e+03,3.327000000000000000e+03,5.792000000000000000e+03,2.060000000000000000e+03,-2.140000000000000000e+02,-8.500000000000000000e+01,9.100000000000000000e+01,-9.500000000000000000e+01,0.000000000000000000e+00
2.149999999999999911e+00,-2.710000000000000000e+02,-5.280000000000000000e+03,1.139700000000000000e+04,4.450000000000000000e+02,1.528000000000000000e+03,-4.740000000000000000e+02,-8.500000000000000000e+01,9.100000000000000000e+01,-9.500000000000000000e+01,0.000000000000000000e+00
2.160000000000000142e+00,3.180000000000000000e+02,-1.050900000000000000e+04,3.357000000000000000e+03,-3.516000000000000000e+03,9.370000000000000000e+02,-6.660000000000000000e+02,-8.300000000000000000e+01,9.100000000000000000e+01,-1.070000000000000000e+02,0.000000000000000000e+00
2.169999999999999929e+00,3.015000000000000000e+03,-1.461800000000000000e+04,-1.904000000000000000e+03,-3.122000000000000000e+03,1.929000000000000000e+03,-2.650000000000000000e+02,-8.300000000000000000e+01,9.100000000000000000e+01,-1.070000000000000000e+02,0.000000000000000000e+00
2.180000000000000160e+00,9.410000000000000000e+02,-1.043100000000000000e+04,-5.423000000000000000e+03,-2.183000000000000000e+03,1.137000000000000000e+03,4.450000000000000000e+02,-8.100000000000000000e+01,8.700000000000000000e+01,-1.050000000000000000e+02,0.000000000000000000e+00
2.189999999999999947e+00,-2.756000000000000000e+03,-5.858000000000000000e+03,-5.032000000000000000e+03,-6.570000000000000000e+02,5.570000000000000000e+02,5.860000000000000000e+02,-8.100000000000000000e+01,8.700000000000000000e+01,-1.050000000000000000e+02,0.000000000000000000e+00
2.200000000000000178e+00,-1.537000000000000000e+03,-5.010000000000000000e+03,-3.886000000000000000e+03,1.744000000000000000e+03,1.100000000000000000e+02,3.830000000000000000e+02,-8.100000000000000000e+01,8.700000000000000000e+01,-1.070000000000000000e+02,0.000000000000000000e+00
2.209999999999999964e+00,-2.768000000000000000e+03,-4.453000000000000000e+03,5.400000000000000000e+02,3.056000000000000000e+03,2.630000000000000000e+02,5.500000000000000000e+02,-8.100000000000000000e+01,8.700000000000000000e+01,-1.070000000000000000e+02,0.000000000000000000e+00
2.220000000000000195e+00,-3.930000000000000000e+02,-5.474000000000000000e+03,5.170000000000000000e+02,2.870000000000000000e+03,1.652000000000000000e+03,7.850000000000000000e+02,-8.100000000000000000e+01,8.500000000000000000e+01,-1.090000000000000000e+02,0.000000000000000000e+00
2.229999999999999982e+00,1.523000000000000000e+03,-6.302000000000000000e+03,1.057800000000000000e+04,1.479000000000000000e+03,1.608000000000000000e+03,1.340000000000000000e+03,-8.100000000000000000e+01,8.500000000000000000e+01,-1.090000000000000000e+02,0.000000000000000000e+00
2.240000000000000213e+00,-2.450000000000000000e+02,-5.930000000000000000e+03,4.290000000000000000e+03,-3.058000000000000000e+03,-5.520000000000000000e+02,1.393000000000000000e+03,-7.600000000000000000e+01,8.400000000000000000e+01,-1.140000000000000000e+02,0.000000000000000000e+00
2.250000000000000000e+00,-2.200000000000000000e+01,-6.386000000000000000e+03,-1.350000000000000000e+02,-2.372000000000000000e+03,7.070000000000000000e+02,1.263000000000000000e+03,-7.600000000000000000e+01,8.400000000000000000e+01,-1.140000000000000000e+02,0.000000000000000000e+00
2.259999999999999787e+00,1.630000000000000000e+02,-5.991000000000000000e+03,-1.820000000000000000e+03,-1.344000000000000000e+03,8.200000000000000000e+02,1.012000000000000000e+03,-7.200000000000000000e+01,9.200000000000000000e+01,-1.160000000000000000e+02,0.000000000000000000e+00
2.270000000000000018e+00,3.440000000000000000e+02,-5.258000000000000000e+03,-2.562000000000000000e+03,-2.700000000000000000e+01,7.150000000000000000e+02,7.820000000000000000e+02,-7.200000000000000000e+01,9.200000000000000000e+01,-1.160000000000000000e+02,0.000000000000000000e+00
2.279999999999999805e+00,4.870000000000000000e+02,-4.375000000000000000e+03,-2.053000000000000000e+03,1.106000000000000000e+03,6.070000000000000000e+02,6.280000000000000000e+02,-6.600000000000000000e+01,9.400000000000000000e+01,-1.080000000000000000e+02,0.000000000000000000e+00
2.290000000000000036e+00,3.460000000000000000e+02,-3.418000000000000000e+03,-1.430000000000000000e+03,2.154000000000000000e+03,5.810000000000000000e+02,4.610000000000000000e+02,-6.600000000000000000e+01,9.400000000000000000e+01,-1.080000000000000000e+02,0.000000000000000000e+00
2.299999999999999822e+00,3.960000000000000000e+02,-1.871000000000000000e+03,-7.710000000000000000e+02,3.174000000000000000e+03,6.690000000000000000e+02,3.210000000000000000e+02,-7.200000000000000000e+01,9.400000000000000000e+01,-1.100000000000000000e+02,0.000000000000000000e+00
2.310000000000000053e+00,1.460000000000000000e+02,-5.630000000000000000e+02,-2.110000000000000000e+02,3.931000000000000000e+03,7.820000000000000000e+02,1.640000000000000000e+02,-7.200000000000000000e+01,9.400000000000000000e+01,-1.100000000000000000e+02,0.000000000000000000e+00
2.319999999999999840e+00,-9.630000000000000000e+02,1.286000000000000000e+03,3.921000000000000000e+03,4.413000000000000000e+03,1.812000000000000000e+03,-1.110000000000000000e+02,-6.600000000000000000e+01,9.400000000000000000e+01,-1.200000000000000000e+02,0.000000000000000000e+00
2.330000000000000071e+00,-2.620000000000000000e+02,2.090000000000000000e+03,2.257000000000000000e+03,3.530000000000000000e+03,5.070000000000000000e+02,-5.520000000000000000e+02,-6.600000000000000000e+01,9.400000000000000000e+01,-1.200000000000000000e+02,0.000000000000000000e+00
2.339999999999999858e+00,-4.500000000000000000e+02,3.161000000000000000e+03,7.630000000000000000e+02,2.078000000000000000e+03,4.420000000000000000e+02,-9.960000000000000000e+02,-6.200000000000000000e+01,8.600000000000000000e+01,-1.360000000000000000e+02,0.000000000000000000e+00
2.350000000000000089e+00,-3.930000000000000000e+02,4.252000000000000000e+03,5.900000000000000000e+01,9.810000000000000000e+02,1.170000000000000000e+02,-1.406000000000000000e+03,-6.200000000000000000e+01,8.600000000000000000e+01,-1.360000000000000000e+02,0.000000000000000000e+00
2.359999999999999876e+00,5.540000000000000000e+02,4.501000000000000000e+03,-2.390000000000000000e+02,-1.340000000000000000e+02,-3.150000000000000000e+02,-1.749000000000000000e+03,-6.700000000000000000e+01,8.300000000000000000e+01,-1.330000000000000000e+02,0.000000000000000000e+00
2.370000000000000107e+00,-9.700000000000000000e+01,5.076000000000000000e+03,-2.970000000000000000e+02,-1.462000000000000000e+03,-9.020000000000000000e+02,-2.030000000000000000e+03,-6.700000000000000000e+01,8.300000000000000000e+01,-1.330000000000000000e+02,0.000000000000000000e+00
2.379999999999999893e+00,-5.260000000000000000e+02,4.552000000000000000e+03,-3.480000000000000000e+02,-2.964000000000000000e+03,-1.364000000000000000e+03,-2.123000000000000000e+03,-7.000000000000000000e+01,8.400000000000000000e+01,-1.320000000000000000e+02,0.000000000000000000e+00
2.390000000000000124e+00,-1.014000000000000000e+03,3.015000000000000000e+03,-1.147000000000000000e+03,-3.536000000000000000e+03,-1.493000000000000000e+03,-1.917000000000000000e+03,-7.000000000000000000e+01,8.400000000000000000e+01,-1.320000000000000000e+02,0.000000000000000000e+00
2.399999999999999911e+00,-2.134000000000000000e+03,2.052000000000000000e+03,-1.731000000000000000e+03,-2.762000000000000000e+03,-6.460000000000000000e+02,-1.733000000000000000e+03,-7.600000000000000000e+01,8.200000000000000000e+01,-1.260000000000000000e+02,0.000000000000000000e+00
2.410000000000000142e+00,-1.445000000000000000e+03,1.599000000000000000e+03,-1.786000000000000000e+03,-1.883000000000000000e+03,-2.000000000000000000e+02,-1.392000000000000000e+03,-7.600000000000000000e+01,8.200000000000000000e+01,-1.260000000000000000e+02,0.000000000000000000e+00
2.419999999999999929e+00,-2.648000000000000000e+03,9.890000000000000000e+02,-1.770000000000000000e+02,-7.390000000000000000e+02,5.100000000000000000e+02,-1.000000000000000000e+03,-7.800000000000000000e+01,8.200000000000000000e+01,-1.180000000000000000e+02,0.000000000000000000e+00
2.430000000000000160e+00,-4.610000000000000000e+03,1.464000000000000000e+03,7.258000000000000000e+03,3.561000000000000000e+03,3.437000000000000000e+03,-6.650000000000000000e+02,-7.800000000000000000e+01,8.200000000000000000e+01,-1.180000000000000000e+02,0.000000000000000000e+00
2.439999999999999947e+00,-4.750000000000000000e+02,5.737000000000000000e+03,1.242300000000000000e+04,-3.750000000000000000e+02,9.590000000000000000e+02,-8.610000000000000000e+02,-7.700000000000000000e+01,7.500000000000000000e+01,-1.210000000000000000e+02,0.000000000000000000e+00
2.450000000000000178e+00,7.011000000000000000e+03,2.625000000000000000e+03,5.472000000000000000e+03,-6.433000000000000000e+03,1.355000000000000000e+03,-8.700000000000000000e+01,-7.700000000000000000e+01,7.500000000000000000e+01,-1.210000000000000000e+02,0.000000000000000000e+00
2.459999999999999964e+00,4.939000000000000000e+03,-1.874000000000000000e+03,2.090000000000000000e+03,-6.449000000000000000e+03,5.300000000000000000e+01,1.335000000000000000e+03,-7.600000000000000000e+01,7.800000000000000000e+01,-1.260000000000000000e+02,0.000000000000000000e+00
2.470000000000000195e+00,6.239000000000000000e+03,-6.555000000000000000e+03,-8.800000000000000000e+01,-4.491000000000000000e+03,2.301000000000000000e+03,3.230000000000000000e+03,-7.600000000000000000e+01,7.800000000000000000e+01,-1.260000000000000000e+02,0.000000000000000000e+00
2.479999999999999982e+00,1.306500000000000000e+04,-2.005500000000000000e+04,9.242000000000000000e+03,-4.924000000000000000e+03,1.372000000000000000e+03,5.796000000000000000e+03,-7.800000000000000000e+01,8.800000000000000000e+01,-1.160000000000000000e+02,0.000000000000000000e+00
2.490000000000000213e+00,5.678000000000000000e+03,-2.028700000000000000e+04,-9.760000000000000000e+02,-4.008000000000000000e+03,-1.406000000000000000e+03,5.843000000000000000e+03,-7.800000000000000000e+01,8.800000000000000000e+01,-1.160000000000000000e+02,0.000000000000000000e+00
2.500000000000000000e+00,-9.271000000000000000e+03,-2.125400000000000000e+04,2.935000000000000000e+03,-6.885000000000000000e+03,-8.910000000000000000e+02,3.405000000000000000e+03,-6.300000000000000000e+01,1.010000000000000000e+02,-1.130000000000000000e+02,0.000000000000000000e+00
2.509999999999999787e+00,-1.429200000000000000e+04,-6.460000000000000000e+03,-9.187000000000000000e+03,-3.024000000000000000e+03,-3.210000000000000000e+02,1.439000000000000000e+03,-6.300000000000000000e+01,1.010000000000000000e+02,-1.130000000000000000e+02,0.000000000000000000e+00
2.520000000000000018e+00,-8.411000000000000000e+03,-2.197000000000000000e+03,-2.480000000000000000e+03,2.138000000000000000e+03,-7.310000000000000000e+02,-1.110000000000000000e+03,-5.700000000000000000e+01,1.110000000000000000e+02,-9.700000000000000000e+01,0.000000000000000000e+00
2.529999999999999805e+00,-3.623000000000000000e+03,-4.047000000000000000e+03,3.310000000000000000e+02,3.938000000000000000e+03,8.940000000000000000e+02,-1.177000000000000000e+03,-5.700000000000000000e+01,1.110000000000000000e+02,-9.700000000000000000e+01,0.000000000000000000e+00
2.540000000000000036e+00,1.240000000000000000e+03,-1.007100000000000000e+04,4.394000000000000000e+03,4.114000000000000000e+03,2.558000000000000000e+03,-5.530000000000000000e+02,-5.700000000000000000e+01,1.110000000000000000e+02,-9.300000000000000000e+01,0.000000000000000000e+00
2.549999999999999822e+00,6.891000000000000000e+03,-1.400700000000000000e+04,7.535000000000000000e+03,1.400000000000000000e+03,-1.520000000000000000e+03,1.270000000000000000e+02,-5.700000000000000000e+01,1.110000000000000000e+02,-9.300000000000000000e+01,0.000000000000000000e+00
2.560000000000000053e+00,2.543000000000000000e+03,-1.058400000000000000e+04,1.281000000000000000e+03,-8.330000000000000000e+02,-1.507000000000000000e+03,-1.520000000000000000e+02,-5.600000000000000000e+01,1.080000000000000000e+02,-1.100000000000000000e+02,0.000000000000000000e+00
2.569999999999999840e+00,3.035000000000000000e+03,-6.545000000000000000e+03,-3.826000000000000000e+03,-1.096000000000000000e+03,-1.047000000000000000e+03,-5.420000000000000000e+02,-5.600000000000000000e+01,1.080000000000000000e+02,-1.100000000000000000e+02,0.000000000000000000e+00
2.580000000000000071e+00,3.801000000000000000e+03,-6.413000000000000000e+03,-4.247000000000000000e+03,-2.330000000000000000e+02,-1.320000000000000000e+02,-1.151000000000000000e+03,-5.700000000000000000e+01,1.070000000000000000e+02,-1.050000000000000000e+02,0.000000000000000000e+00
2.589999999999999858e+00,3.626000000000000000e+03,-6.164000000000000000e+03,-1.049000000000000000e+03,1.427000000000000000e+03,3.480000000000000000e+02,-1.355000000000000000e+03,-5.700000000000000000e+01,1.070000000000000000e+02,-1.050000000000000000e+02,0.000000000000000000e+00
2.600000000000000089e+00,4.508000000000000000e+03,-6.101000000000000000e+03,1.730000000000000000e+02,1.802000000000000000e+03,5.360000000000000000e+02,-1.490000000000000000e+03,-6.100000000000000000e+01,9.900000000000000000e+01,-1.090000000000000000e+02,0.000000000000000000e+00
2.609999999999999876e+00,1.960000000000000000e+03,-6.782000000000000000e+03,1.756000000000000000e+03,1.408000000000000000e+03,8.500000000000000000e+01,-1.466000000000000000e+03,-6.100000000000000000e+01,9.900000000000000000e+01,-1.090000000000000000e+02,0.000000000000000000e+00
2.620000000000000107e+00,1.874000000000000000e+03,-7.462000000000000000e+03,2.066000000000000000e+03,6.150000000000000000e+02,-2.920000000000000000e+02,-1.492000000000000000e+03,-6.000000000000000000e+01,9.600000000000000000e+01,-1.100000000000000000e+02,0.000000000000000000e+00
2.629999999999999893e+00,1.058000000000000000e+03,-7.260000000000000000e+03,1.115000000000000000e+03,2.750000000000000000e+02,-4.570000000000000000e+02,-1.313000000000000000e+03,-6.000000000000000000e+01,9.600000000000000000e+01,-1.100000000000000000e+02,0.000000000000000000e+00
2.640000000000000124e+00,1.353000000000000000e+03,-6.263000000000000000e+03,-3.840000000000000000e+02,3.800000000000000000e+02,-7.100000000000000000e+02,-9.580000000000000000e+02,-6.500000000000000000e+01,1.030000000000000000e+02,-1.110000000000000000e+02,0.000000000000000000e+00
2.649999999999999911e+00,4.520000000000000000e+02,-6.119000000000000000e+03,2.280000000000000000e+02,5.200000000000000000e+02,-7.740000000000000000e+02,-4.850000000000000000e+02,-6.500000000000000000e+01,1.030000000000000000e+02,-1.110000000000000000e+02,0.000000000000000000e+00
2.660000000000000142e+00,-3.060000000000000000e+02,-5.365000000000000000e+03,-2.520000000000000000e+02,4.490000000000000000e+02,1.130000000000000000e+02,-6.000000000000000000e+00,-6.500000000000000000e+01,9.100000000000000000e+01,-1.110000000000000000e+02,0.000000000000000000e+00
2.669999999999999929e+00,9.000000000000000000e+01,-5.176000000000000000e+03,-6.420000000000000000e+02,7.820000000000000000e+02,2.350000000000000000e+02,4.820000000000000000e+02,-6.500000000000000000e+01,9.100000000000000000e+01,-1.110000000000000000e+02,0.000000000000000000e+00
2.680000000000000160e+00,1.140000000000000000e+02,-4.428000000000000000e+03,-7.790000000000000000e+02,1.599000000000000000e+03,1.210000000000000000e+02,7.970000000000000000e+02,-7.300000000000000000e+01,1.010000000000000000e+02,-1.170000000000000000e+02,0.000000000000000000e+00
2.689999999999999947e+00,-1.390000000000000000e+02,-2.983000000000000000e+03,-3.520000000000000000e+02,2.239000000000000000e+03,1.760000000000000000e+02,1.115000000000000000e+03,-7.300000000000000000e+01,1.010000000000000000e+02,-1.170000000000000000e+02,0.000000000000000000e+00
2.700000000000000178e+00,-7.950000000000000000e+02,-8.910000000000000000e+02,-6.200000000000000000e+02,2.837000000000000000e+03,-6.080000000000000000e+02,1.429000000000000000e+03,-6.300000000000000000e+01,9.500000000000000000e+01,-1.150000000000000000e+02,0.000000000000000000e+00
2.709999999999999964e+00,-2.331000000000000000e+03,8.980000000000000000e+02,-5.400000000000000000e+01,3.008000000000000000e+03,-5.440000000000000000e+02,1.656000000000000000e+03,-6.300000000000000000e+01,9.500000000000000000e+01,-1.150000000000000000e+02,0.000000000000000000e+00
2.720000000000000195e+00,-1.738000000000000000e+03,2.338000000000000000e+03,-9.500000000000000000e+01,3.158000000000000000e+03,8.500000000000000000e+01,1.794000000000000000e+03,-6.400000000000000000e+01,9.600000000000000000e+01,-1.200000000000000000e+02,0.000000000000000000e+00
2.729999999999999982e+00,-1.727000000000000000e+03,3.146000000000000000e+03,-1.690000000000000000e+02,3.394000000000000000e+03,7.570000000000000000e+02,2.004000000000000000e+03,-6.400000000000000000e+01,9.600000000000000000e+01,-1.200000000000000000e+02,0.000000000000000000e+00
2.740000000000000213e+00,-1.463000000000000000e+03,3.968000000000000000e+03,3.360000000000000000e+02,3.128000000000000000e+03,7.810000000000000000e+02,2.167000000000000000e+03,-6.200000000000000000e+01,9.400000000000000000e+01,-1.280000000000000000e+02,0.000000000000000000e+00
2.750000000000000000e+00,-1.429000000000000000e+03,4.451000000000000000e+03,8.160000000000000000e+02,2.006000000000000000e+03,1.018000000000000000e+03,2.263000000000000000e+03,-6.200000000000000000e+01,9.400000000000000000e+01,-1.280000000000000000e+02,0.000000000000000000e+00
2.759999999999999787e+00,-1.147000000000000000e+03,4.314000000000000000e+03,8.560000000000000000e+02,8.140000000000000000e+02,8.320000000000000000e+02,2.174000000000000000e+03,-6.300000000000000000e+01,9.100000000000000000e+01,-1.330000000000000000e+02,0.000000000000000000e+00
2.770000000000000018e+00,-5.510000000000000000e+02,4.224000000000000000e+03,6.630000000000000000e+02,-2.600000000000000000e+01,7.690000000000000000e+02,1.983000000000000000e+03,-6.300000000000000000e+01,9.100000000000000000e+01,-1.330000000000000000e+02,0.000000000000000000e+00
2.779999999999999805e+00,1.560000000000000000e+02,3.737000000000000000e+03,3.250000000000000000e+02,-7.640000000000000000e+02,7.290000000000000000e+02,1.648000000000000000e+03,-4.800000000000000000e+01,9.200000000000000000e+01,-1.380000000000000000e+02,0.000000000000000000e+00
2.790000000000000036e+00,9.140000000000000000e+02,2.833000000000000000e+03,5.500000000000000000e+01,-1.421000000000000000e+03,7.690000000000000000e+02,1.408000000000000000e+03,-4.800000000000000000e+01,9.200000000000000000e+01,-1.380000000000000000e+02,0.000000000000000000e+00
2.799999999999999822e+00,7.990000000000000000e+02,2.186000000000000000e+03,-3.980000000000000000e+02,-1.625000000000000000e+03,2.600000000000000000e+02,1.106000000000000000e+03,-5.200000000000000000e+01,9.800000000000000000e+01,-1.340000000000000000e+02,0.000000000000000000e+00
2.810000000000000053e+00,5.620000000000000000e+02,1.854000000000000000e+03,-2.110000000000000000e+02,-1.388000000000000000e+03,-2.050000000000000000e+02,7.870000000000000000e+02,-5.200000000000000000e+01,9.800000000000000000e+01,-1.340000000000000000e+02,0.000000000000000000e+00
2.819999999999999840e+00,6.390000000000000000e+02,1.706000000000000000e+03,7.550000000000000000e+02,-1.142000000000000000e+03,3.500000000000000000e+01,3.980000000000000000e+02,-3.800000000000000000e+01,1.080000000000000000e+02,-1.340000000000000000e+02,0.000000000000000000e+00
2.830000000000000071e+00,5.944000000000000000e+03,2.406000000000000000e+03,2.346000000000000000e+03,-2.860000000000000000e+02,-4.859000000000000000e+03,-1.660000000000000000e+02,-3.800000000000000000e+01,1.080000000000000000e+02,-1.340000000000000000e+02,0.000000000000000000e+00
2.839999999999999858e+00,4.058000000000000000e+03,1.489000000000000000e+03,1.077500000000000000e+04,-6.340000000000000000e+02,-2.741000000000000000e+03,-1.120000000000000000e+02,-4.400000000000000000e+01,1.060000000000000000e+02,-1.300000000000000000e+02,0.000000000000000000e+00
2.850000000000000089e+00,-8.093000000000000000e+03,1.906000000000000000e+03,7.872000000000000000e+03,-3.404000000000000000e+03,-2.522000000000000000e+03,-9.540000000000000000e+02,-4.400000000000000000e+01,1.060000000000000000e+02,-1.300000000000000000e+02,0.000000000000000000e+00
2.859999999999999876e+00,-6.429000000000000000e+03,-5.860000000000000000e+02,3.256000000000000000e+03,-5.000000000000000000e+03,-1.930000000000000000e+03,-2.923000000000000000e+03,-4.800000000000000000e+01,1.060000000000000000e+02,-1.260000000000000000e+02,0.000000000000000000e+00
2.870000000000000107e+00,-6.128000000000000000e+03,-5.927000000000000000e+03,2.430000000000000000e+03,-4.746000000000000000e+03,-2.137000000000000000e+03,-4.536000000000000000e+03,-4.800000000000000000e+01,1.060000000000000000e+02,-1.260000000000000000e+02,0.000000000000000000e+00
2.879999999999999893e+00,4.104000000000000000e+03,-1.388200000000000000e+04,-1.524000000000000000e+03,-4.891000000000000000e+03,-1.289000000000000000e+03,-6.070000000000000000e+03,-5.700000000000000000e+01,1.050000000000000000e+02,-1.090000000000000000e+02,0.000000000000000000e+00
2.890000000000000124e+00,2.002000000000000000e+03,-1.440100000000000000e+04,-2.986000000000000000e+03,-2.318000000000000000e+03,-1.088000000000000000e+03,-4.357000000000000000e+03,-5.700000000000000000e+01,1.050000000000000000e+02,-1.090000000000000000e+02,0.000000000000000000e+00
2.899999999999999911e+00,1.676100000000000000e+04,-2.339500000000000000e+04,1.624000000000000000e+03,-1.578000000000000000e+03,-1.146000000000000000e+03,-8.250000000000000000e+02,-7.000000000000000000e+01,1.020000000000000000e+02,-1.040000000000000000e+02,0.000000000000000000e+00
2.910000000000000142e+00,7.668000000000000000e+03,-7.474000000000000000e+03,-2.726000000000000000e+03,2.755000000000000000e+03,-2.810000000000000000e+02,2.620000000000000000e+02,-7.000000000000000000e+01,1.020000000000000000e+02,-1.040000000000000000e+02,0.000000000000000000e+00
2.919999999999999929e+00,3.165000000000000000e+03,-2.614000000000000000e+03,7.190000000000000000e+02,5.488000000000000000e+03,6.440000000000000000e+02,4.510000000000000000e+02,-7.400000000000000000e+01,1.000000000000000000e+02,-1.000000000000000000e+02,0.000000000000000000e+00
2.930000000000000160e+00,2.905000000000000000e+03,-2.428000000000000000e+03,4.348000000000000000e+03,4.667000000000000000e+03,-2.490000000000000000e+03,3.000000000000000000e+01,-7.400000000000000000e+01,1.000000000000000000e+02,-1.000000000000000000e+02,0.000000000000000000e+00
2.939999999999999947e+00,-3.700000000000000000e+03,-5.222000000000000000e+03,7.820000000000000000e+03,-1.797000000000000000e+03,-3.710000000000000000e+02,-4.340000000000000000e+02,-7.800000000000000000e+01,1.020000000000000000e+02,-1.080000000000000000e+02,0.000000000000000000e+00
2.950000000000000178e+00,-2.711000000000000000e+03,-7.708000000000000000e+03,1.847000000000000000e+03,-3.618000000000000000e+03,-1.303000000000000000e+03,-1.101000000000000000e+03,-7.800000000000000000e+01,1.020000000000000000e+02,-1.080000000000000000e+02,0.000000000000000000e+00
2.959999999999999964e+00,1.416000000000000000e+03,-1.073400000000000000e+04,-1.488000000000000000e+03,-3.254000000000000000e+03,6.360000000000000000e+02,-8.730000000000000000e+02,-7.700000000000000000e+01,9.900000000000000000e+01,-1.090000000000000000e+02,0.000000000000000000e+00
2.970000000000000195e+00,2.630000000000000000e+03,-1.389500000000000000e+04,-3.604000000000000000e+03,-7.580000000000000000e+02,4.790000000000000000e+02,3.300000000000000000e+01,-7.700000000000000000e+01,9.900000000000000000e+01,-1.090000000000000000e+02,0.000000000000000000e+00
2.979999999999999982e+00,2.444000000000000000e+03,-8.868000000000000000e+03,-3.958000000000000000e+03,1.128000000000000000e+03,1.400000000000000000e+01,6.410000000000000000e+02,-7.100000000000000000e+01,1.030000000000000000e+02,-9.900000000000000000e+01,0.000000000000000000e+00
2.990000000000000213e+00,2.075000000000000000e+03,-6.672000000000000000e+03,-1.357000000000000000e+03,1.937000000000000000e+03,-2.750000000000000000e+02,7.520000000000000000e+02,-7.100000000000000000e+01,1.030000000000000000e+02,-9.900000000000000000e+01,0.000000000000000000e+00
3.000000000000000000e+00,8.560000000000000000e+02,-5.920000000000000000e+03,1.008000000000000000e+03,1.802000000000000000e+03,3.000000000000000000e+00,6.940000000000000000e+02,-7.100000000000000000e+01,1.010000000000000000e+02,-1.050000000000000000e+02,0.000000000000000000e+00
3.009999999999999787e+00,3.010000000000000000e+03,-7.210000000000000000e+03,2.319000000000000000e+03,1.010000000000000000e+03,-4.200000000000000000e+01,5.220000000000000000e+02,-7.100000000000000000e+01,1.010000000000000000e+02,-1.050000000000000000e+02,0.000000000000000000e+00
3.020000000000000018e+00,2.050000000000000000e+03,-7.165000000000000000e+03,1.881000000000000000e+03,-4.490000000000000000e+02,1.120000000000000000e+02,5.190000000000000000e+02,-7.200000000000000000e+01,9.800000000000000000e+01,-1.040000000000000000e+02,0.000000000000000000e+00
3.029999999999999805e+00,2.456000000000000000e+03,-7.417000000000000000e+03,9.600000000000000000e+01,-1.261000000000000000e+03,2.640000000000000000e+02,6.700000000000000000e+02,-7.200000000000000000e+01,9.800000000000000000e+01,-1.040000000000000000e+02,0.000000000000000000e+00
3.040000000000000036e+00,2.087000000000000000e+03,-6.361000000000000000e+03,-2.422000000000000000e+03,-2.920000000000000000e+02,5.120000000000000000e+02,6.030000000000000000e+02,-7.100000000000000000e+01,1.010000000000000000e+02,-1.030000000000000000e+02,0.000000000000000000e+00
3.049999999999999822e+00,1.146000000000000000e+03,-5.158000000000000000e+03,-2.352000000000000000e+03,1.556000000000000000e+03,6.600000000000000000e+02,3.800000000000000000e+02,-7.100000000000000000e+01,1.010000000000000000e+02,-1.030000000000000000e+02,0.000000000000000000e+00
3.060000000000000053e+00,4.840000000000000000e+02,-4.325000000000000000e+03,-5.870000000000000000e+02,2.446000000000000000e+03,8.830000000000000000e+02,1.800000000000000000e+02,-7.100000000000000000e+01,1.010000000000000000e+02,-1.090000000000000000e+02,0.000000000000000000e+00
3.069999999999999840e+00,-4.490000000000000000e+02,-4.057000000000000000e+03,5.660000000000000000e+02,2.251000000000000000e+03,8.810000000000000000e+02,8.400000000000000000e+01,-7.100000000000000000e+01,1.010000000000000000e+02,-1.090000000000000000e+02,0.000000000000000000e+00
3.080000000000000071e+00,-1.919000000000000000e+03,-3.708000000000000000e+03,9.210000000000000000e+02,1.567000000000000000e+03,7.480000000000000000e+02,-6.600000000000000000e+01,-7.100000000000000000e+01,9.900000000000000000e+01,-1.150000000000000000e+02,0.000000000000000000e+00
3.089999999999999858e+00,-2.121000000000000000e+03,-3.348000000000000000e+03,4.660000000000000000e+02,1.237000000000000000e+03,5.620000000000000000e+02,-2.990000000000000000e+02,-7.100000000000000000e+01,9.900000000000000000e+01,-1.150000000000000000e+02,0.000000000000000000e+00
3.100000000000000089e+00,-2.419000000000000000e+03,-2.539000000000000000e+03,1.310000000000000000e+02,1.635000000000000000e+03,2.620000000000000000e+02,-5.180000000000000000e+02,-7.300000000000000000e+01,9.900000000000000000e+01,-1.190000000000000000e+02,0.000000000000000000e+00
3.109999999999999876e+00,-2.178000000000000000e+03,-1.533000000000000000e+03,2.000000000000000000e+02,2.409000000000000000e+03,2.690000000000000000e+02,-9.740000000000000000e+02,-7.300000000000000000e+01,9.900000000000000000e+01,-1.190000000000000000e+02,0.000000000000000000e+00
3.120000000000000107e+00,-1.497000000000000000e+03,3.900000000000000000e+01,2.124000000000000000e+03,3.020000000000000000e+03,8.610000000000000000e+02,-1.256000000000000000e+03,-7.700000000000000000e+01,9.700000000000000000e+01,-1.170000000000000000e+02,0.000000000000000000e+00
3.129999999999999893e+00,-1.920000000000000000e+02,1.823000000000000000e+03,1.559000000000000000e+03,2.884000000000000000e+03,1.480000000000000000e+02,-1.552000000000000000e+03,-7.700000000000000000e+01,9.700000000000000000e+01,-1.170000000000000000e+02,0.000000000000000000e+00
3.140000000000000124e+00,-2.460000000000000000e+02,2.654000000000000000e+03,1.681000000000000000e+03,1.839000000000000000e+03,2.050000000000000000e+02,-1.788000000000000000e+03,-7.000000000000000000e+01,9.400000000000000000e+01,-1.300000000000000000e+02,0.000000000000000000e+00
3.149999999999999911e+00,-1.277000000000000000e+03,4.155000000000000000e+03,8.920000000000000000e+02,6.670000000000000000e+02,1.900000000000000000e+01,-2.071000000000000000e+03,-7.000000000000000000e+01,9.400000000000000000e+01,-1.300000000000000000e+02,0.000000000000000000e+00
3.160000000000000142e+00,5.070000000000000000e+02,4.225000000000000000e+03,8.540000000000000000e+02,-8.740000000000000000e+02,-2.720000000000000000e+02,-2.174000000000000000e+03,-7.800000000000000000e+01,8.400000000000000000e+01,-1.300000000000000000e+02,0.000000000000000000e+00
3.169999999999999929e+00,1.680000000000000000e+02,4.916000000000000000e+03,8.200000000000000000e+01,-2.754000000000000000e+03,-5.630000000000000000e+02,-2.134000000000000000e+03,-7.800000000000000000e+01,8.400000000000000000e+01,-1.300000000000000000e+02,0.000000000000000000e+00
3.180000000000000160e+00,5.150000000000000000e+02,3.729000000000000000e+03,-9.020000000000000000e+02,-3.001000000000000000e+03,-1.564000000000000000e+03,-1.971000000000000000e+03,-8.100000000000000000e+01,7.900000000000000000e+01,-1.330000000000000000e+02,0.000000000000000000e+00
3.189999999999999947e+00,-8.800000000000000000e+02,2.501000000000000000e+03,-2.581000000000000000e+03,-2.246000000000000000e+03,-3.800000000000000000e+02,-1.708000000000000000e+03,-8.100000000000000000e+01,7.900000000000000000e+01,-1.330000000000000000e+02,0.000000000000000000e+00
3.200000000000000178e+00,-5.790000000000000000e+02,1.799000000000000000e+03,-2.179000000000000000e+03,-1.458000000000000000e+03,-1.090000000000000000e+02,-1.381000000000000000e+03,-9.000000000000000000e+01,8.200000000000000000e+01,-1.260000000000000000e+02,0.000000000000000000e+00
3.209999999999999964e+00,-3.140000000000000000e+02,1.426000000000000000e+03,-1.515000000000000000e+03,-7.640000000000000000e+02,4.100000000000000000e+01,-1.080000000000000000e+03,-9.000000000000000000e+01,8.200000000000000000e+01,-1.260000000000000000e+02,0.000000000000000000e+00
3.220000000000000195e+00,-1.370000000000000000e+02,1.384000000000000000e+03,-6.950000000000000000e+02,-2.250000000000000000e+02,1.500000000000000000e+02,-8.070000000000000000e+02,-9.300000000000000000e+01,8.700000000000000000e+01,-1.190000000000000000e+02,0.000000000000000000e+00
3.229999999999999982e+00,-3.400000000000000000e+02,1.189000000000000000e+03,2.700000000000000000e+01,-1.700000000000000000e+02,8.250000000000000000e+02,-5.590000000000000000e+02,-9.300000000000000000e+01,8.700000000000000000e+01,-1.190000000000000000e+02,0.000000000000000000e+00
3.240000000000000213e+00,-5.160000000000000000e+02,6.190000000000000000e+02,5.450000000000000000e+02,-3.780000000000000000e+02,8.050000000000000000e+02,-3.360000000000000000e+02,-8.800000000000000000e+01,8.400000000000000000e+01,-1.200000000000000000e+02,0.000000000000000000e+00
3.250000000000000000e+00,-3.063000000000000000e+03,-5.380000000000000000e+02,6.772000000000000000e+03,-9.320000000000000000e+02,1.095000000000000000e+03,-1.780000000000000000e+02,-8.800000000000000000e+01,8.400000000000000000e+01,-1.200000000000000000e+02,0.000000000000000000e+00
3.259999999999999787e+00,-1.171600000000000000e+04,2.454000000000000000e+03,1.028800000000000000e+04,-1.323000000000000000e+03,2.080000000000000000e+03,2.960000000000000000e+02,-8.600000000000000000e+01,8.000000000000000000e+01,-1.260000000000000000e+02,0.000000000000000000e+00
3.270000000000000018e+00,3.052000000000000000e+03,2.936000000000000000e+03,9.957000000000000000e+03,-1.171000000000000000e+03,3.296000000000000000e+03,-3.620000000000000000e+02,-8.600000000000000000e+01,8.000000000000000000e+01,-1.260000000000000000e+02,0.000000000000000000e+00
3.279999999999999805e+00,9.653000000000000000e+03,-3.920000000000000000e+03,1.289500000000000000e+04,-7.306000000000000000e+03,3.153000000000000000e+03,1.701000000000000000e+03,-9.600000000000000000e+01,7.600000000000000000e+01,-1.240000000000000000e+02,0.000000000000000000e+00
3.290000000000000036e+00,2.662000000000000000e+04,-1.951100000000000000e+04,-3.984000000000000000e+03,-8.030000000000000000e+03,3.059000000000000000e+03,5.140000000000000000e+03,-9.600000000000000000e+01,7.600000000000000000e+01,-1.240000000000000000e+02,0.000000000000000000e+00
3.299999999999999822e+00,7.463000000000000000e+03,-1.572300000000000000e+04,-5.936000000000000000e+03,-3.403000000000000000e+03,1.059000000000000000e+03,5.774000000000000000e+03,-7.900000000000000000e+01,9.300000000000000000e+01,-1.190000000000000000e+02,0.000000000000000000e+00
3.310000000000000053e+00,-5.250000000000000000e+03,-1.638600000000000000e+04,-1.216000000000000000e+03,-1.432000000000000000e+03,1.376000000000000000e+03,3.415000000000000000e+03,-7.900000000000000000e+01,9.300000000000000000e+01,-1.190000000000000000e+02,0.000000000000000000e+00
3.319999999999999840e+00,-1.065400000000000000e+04,-1.152900000000000000e+04,-9.540000000000000000e+02,-1.194000000000000000e+03,9.130000000000000000e+02,3.830000000000000000e+02,-6.900000000000000000e+01,1.050000000000000000e+02,-1.130000000000000000e+02,0.000000000000000000e+00
3.330000000000000071e+00,-9.036000000000000000e+03,-6.305000000000000000e+03,-2.167000000000000000e+03,5.200000000000000000e+02,3.860000000000000000e+02,-1.629000000000000000e+03,-6.900000000000000000e+01,1.050000000000000000e+02,-1.130000000000000000e+02,0.000000000000000000e+00
3.339999999999999858e+00,-2.712000000000000000e+03,-1.132000000000000000e+03,-1.789000000000000000e+03,2.704000000000000000e+03,6.850000000000000000e+02,-1.452000000000000000e+03,-7.300000000000000000e+01,1.050000000000000000e+02,-1.110000000000000000e+02,0.000000000000000000e+00
3.350000000000000089e+00,-1.799000000000000000e+03,-4.374000000000000000e+03,1.990000000000000000e+03,4.241000000000000000e+03,1.581000000000000000e+03,-1.066000000000000000e+03,-7.300000000000000000e+01,1.050000000000000000e+02,-1.110000000000000000e+02,0.000000000000000000e+00
3.359999999999999876e+00,2.558000000000000000e+03,-1.019700000000000000e+04,4.348000000000000000e+03,2.747000000000000000e+03,3.940000000000000000e+03,-2.600000000000000000e+02,-7.000000000000000000e+01,1.000000000000000000e+02,-1.140000000000000000e+02,0.000000000000000000e+00
3.370000000000000107e+00,4.375000000000000000e+03,-1.150700000000000000e+04,2.595000000000000000e+03,4.180000000000000000e+02,1.314000000000000000e+03,2.630000000000000000e+02,-7.000000000000000000e+01,1.000000000000000000e+02,-1.140000000000000000e+02,0.000000000000000000e+00
3.379999999999999893e+00,2.283000000000000000e+03,-1.225900000000000000e+04,3.248000000000000000e+03,-1.108000000000000000e+03,2.710000000000000000e+02,-2.200000000000000000e+01,-6.800000000000000000e+01,1.020000000000000000e+02,-1.240000000000000000e+02,0.000000000000000000e+00
3.390000000000000124e+00,2.537000000000000000e+03,-7.091000000000000000e+03,-9.430000000000000000e+02,-1.767000000000000000e+03,8.370000000000000000e+02,-5.160000000000000000e+02,-6.800000000000000000e+01,1.020000000000000000e+02,-1.240000000000000000e+02,0.000000000000000000e+00
3.399999999999999911e+00,2.916000000000000000e+03,-6.733000000000000000e+03,-2.181000000000000000e+03,-1.152000000000000000e+03,1.272000000000000000e+03,-1.044000000000000000e+03,-6.700000000000000000e+01,9.900000000000000000e+01,-1.270000000000000000e+02,0.000000000000000000e+00
3.410000000000000142e+00,2.715000000000000000e+03,-7.332000000000000000e+03,-9.370000000000000000e+02,3.380000000000000000e+02,1.488000000000000000e+03,-1.537000000000000000e+03,-6.700000000000000000e+01,9.900000000000000000e+01,-1.270000000000000000e+02,0.000000000000000000e+00
3.419999999999999929e+00,1.279000000000000000e+03,-8.136000000000000000e+03,6.530000000000000000e+02,9.340000000000000000e+02,1.252000000000000000e+03,-1.545000000000000000e+03,-7.300000000000000000e+01,1.010000000000000000e+02,-1.210000000000000000e+02,0.000000000000000000e+00
3.430000000000000160e+00,-1.500000000000000000e+02,-8.795000000000000000e+03,9.950000000000000000e+02,6.080000000000000000e+02,7.510000000000000000e+02,-1.447000000000000000e+03,-7.300000000000000000e+01,1.010000000000000000e+02,-1.210000000000000000e+02,0.000000000000000000e+00
3.439999999999999947e+00,-2.087000000000000000e+03,-7.889000000000000000e+03,-1.060000000000000000e+02,7.030000000000000000e+02,5.000000000000000000e+01,-1.352000000000000000e+03,-6.800000000000000000e+01,9.600000000000000000e+01,-1.240000000000000000e+02,0.000000000000000000e+00
3.450000000000000178e+00,-1.629000000000000000e+03,-6.244000000000000000e+03,-7.700000000000000000e+02,1.271000000000000000e+03,-4.650000000000000000e+02,-1.227000000000000000e+03,-6.800000000000000000e+01,9.600000000000000000e+01,-1.240000000000000000e+02,0.000000000000000000e+00
3.459999999999999964e+00,-2.586000000000000000e+03,-4.815000000000000000e+03,-4.800000000000000000e+02,1.696000000000000000e+03,1.900000000000000000e+01,-1.055000000000000000e+03,-7.600000000000000000e+01,9.000000000000000000e+01,-1.320000000000000000e+02,0.000000000000000000e+00
3.470000000000000195e+00,-1.920000000000000000e+03,-3.535000000000000000e+03,-1.850000000000000000e+02,1.829000000000000000e+03,1.780000000000000000e+02,-9.480000000000000000e+02,-7.600000000000000000e+01,9.000000000000000000e+01,-1.320000000000000000e+02,0.000000000000000000e+00
3.479999999999999982e+00,-1.011000000000000000e+03,-3.429000000000000000e+03,5.100000000000000000e+02,1.361000000000000000e+03,1.240000000000000000e+02,-6.880000000000000000e+02,-7.400000000000000000e+01,8.800000000000000000e+01,-1.320000000000000000e+02,0.000000000000000000e+00
3.490000000000000213e+00,-6.440000000000000000e+02,-2.721000000000000000e+03,2.070000000000000000e+02,1.089000000000000000e+03,-1.460000000000000000e+02,-3.650000000000000000e+02,-7.400000000000000000e+01,8.800000000000000000e+01,-1.320000000000000000e+02,0.000000000000000000e+00
3.500000000000000000e+00,-2.770000000000000000e+02,-2.746000000000000000e+03,1.890000000000000000e+02,1.243000000000000000e+03,-3.000000000000000000e+02,-2.000000000000000000e+00,-7.900000000000000000e+01,8.300000000000000000e+01,-1.350000000000000000e+02,0.000000000000000000e+00
3.509999999999999787e+00,-2.800000000000000000e+02,-1.910000000000000000e+03,2.710000000000000000e+02,1.720000000000000000e+03,-5.250000000000000000e+02,3.260000000000000000e+02,-7.900000000000000000e+01,8.300000000000000000e+01,-1.350000000000000000e+02,0.000000000000000000e+00
3.520000000000000018e+00,-8.600000000000000000e+01,-8.120000000000000000e+02,3.410000000000000000e+02,1.922000000000000000e+03,-6.780000000000000000e+02,6.580000000000000000e+02,-7.900000000000000000e+01,8.300000000000000000e+01,-1.330000000000000000e+02,0.000000000000000000e+00
3.529999999999999805e+00,-3.020000000000000000e+02,3.040000000000000000e+02,1.420000000000000000e+02,2.209000000000000000e+03,-6.180000000000000000e+02,9.930000000000000000e+02,-7.900000000000000000e+01,8.300000000000000000e+01,-1.330000000000000000e+02,0.000000000000000000e+00
3.540000000000000036e+00,-6.810000000000000000e+02,1.544000000000000000e+03,-1.190000000000000000e+02,2.743000000000000000e+03,-3.120000000000000000e+02,1.352000000000000000e+03,-7.800000000000000000e+01,7.400000000000000000e+01,-1.360000000000000000e+02,0.000000000000000000e+00
3.549999999999999822e+00,-1.027000000000000000e+03,2.474000000000000000e+03,-1.150000000000000000e+02,3.182000000000000000e+03,-7.600000000000000000e+01,1.655000000000000000e+03,-7.800000000000000000e+01,7.400000000000000000e+01,-1.360000000000000000e+02,0.000000000000000000e+00
3.560000000000000053e+00,-1.104000000000000000e+03,3.134000000000000000e+03,1.370000000000000000e+02,3.304000000000000000e+03,-1.000000000000000000e+01,1.916000000000000000e+03,-7.800000000000000000e+01,7.600000000000000000e+01,-1.380000000000000000e+02,0.000000000000000000e+00
3.569999999999999840e+00,-6.110000000000000000e+02,3.539000000000000000e+03,5.910000000000000000e+02,3.045000000000000000e+03,1.070000000000000000e+02,2.077000000000000000e+03,-7.800000000000000000e+01,7.600000000000000000e+01,-1.380000000000000000e+02,0.000000000000000000e+00
3.580000000000000071e+00,-8.370000000000000000e+02,3.975000000000000000e+03,3.590000000000000000e+02,1.491000000000000000e+03,1.174000000000000000e+03,2.199000000000000000e+03,-7.200000000000000000e+01,7.200000000000000000e+01,-1.440000000000000000e+02,0.000000000000000000e+00
3.589999999999999858e+00,-5.900000000000000000e+01,3.931000000000000000e+03,5.390000000000000000e+02,3.100000000000000000e+02,1.148000000000000000e+03,2.045000000000000000e+03,-7.200000000000000000e+01,7.200000000000000000e+01,-1.440000000000000000e+02,0.000000000000000000e+00
3.600000000000000089e+00,7.570000000000000000e+02,3.211000000000000000e+03,1.039000000000000000e+03,-8.340000000000000000e+02,7.310000000000000000e+02,1.848000000000000000e+03,-7.000000000000000000e+01,6.800000000000000000e+01,-1.500000000000000000e+02,0.000000000000000000e+00
3.609999999999999876e+00,1.920000000000000000e+02,2.770000000000000000e+03,6.000000000000000000e+01,-1.842000000000000000e+03,7.610000000000000000e+02,1.553000000000000000e+03,-7.000000000000000000e+01,6.800000000000000000e+01,-1.500000000000000000e+02,0.000000000000000000e+00
3.620000000000000107e+00,4.350000000000000000e+02,2.357000000000000000e+03,-3.310000000000000000e+02,-2.244000000000000000e+03,8.770000000000000000e+02,1.222000000000000000e+03,-6.400000000000000000e+01,7.200000000000000000e+01,-1.480000000000000000e+02,0.000000000000000000e+00
3.629999999999999893e+00,4.080000000000000000e+02,2.044000000000000000e+03,-5.220000000000000000e+02,-2.682000000000000000e+03,6.970000000000000000e+02,8.300000000000000000e+02,-6.400000000000000000e+01,7.200000000000000000e+01,-1.480000000000000000e+02,0.000000000000000000e+00
3.640000000000000124e+00,1.309000000000000000e+03,1.824000000000000000e+03,-3.370000000000000000e+02,-2.788000000000000000e+03,1.149000000000000000e+03,4.210000000000000000e+02,-6.500000000000000000e+01,7.900000000000000000e+01,-1.430000000000000000e+02,0.000000000000000000e+00
3.649999999999999911e+00,9.333000000000000000e+03,1.646000000000000000e+03,7.297000000000000000e+03,-7.360000000000000000e+02,-2.318000000000000000e+03,1.600000000000000000e+01,-6.500000000000000000e+01,7.900000000000000000e+01,-1.430000000000000000e+02,0.000000000000000000e+00
3.660000000000000142e+00,4.279000000000000000e+03,1.926000000000000000e+03,8.060000000000000000e+03,-5.150000000000000000e+02,-2.166000000000000000e+03,1.580000000000000000e+02,-5.900000000000000000e+01,8.900000000000000000e+01,-1.410000000000000000e+02,0.000000000000000000e+00
3.669999999999999929e+00,-6.682000000000000000e+03,2.518000000000000000e+03,7.718000000000000000e+03,-3.988000000000000000e+03,-2.414000000000000000e+03,-7.070000000000000000e+02,-5.900000000000000000e+01,8.900000000000000000e+01,-1.410000000000000000e+02,0.000000000000000000e+00
3.680000000000000160e+00,-3.567000000000000000e+03,-1.425000000000000000e+03,3.568000000000000000e+03,-5.550000000000000000e+03,-1.636000000000000000e+03,-2.461000000000000000e+03,-6.300000000000000000e+01,8.900000000000000000e+01,-1.350000000000000000e+02,0.000000000000000000e+00
3.689999999999999947e+00,-3.084000000000000000e+03,-8.823000000000000000e+03,4.547000000000000000e+03,-4.236000000000000000e+03,-2.575000000000000000e+03,-4.327000000000000000e+03,-6.300000000000000000e+01,8.900000000000000000e+01,-1.350000000000000000e+02,0.000000000000000000e+00
3.700000000000000178e+00,-3.013000000000000000e+03,-2.325500000000000000e+04,1.101700000000000000e+04,-4.118000000000000000e+03,2.152000000000000000e+03,-6.900000000000000000e+03,-6.400000000000000000e+01,9.400000000000000000e+01,-1.200000000000000000e+02,0.000000000000000000e+00
3.709999999999999964e+00,1.786900000000000000e+04,-2.456000000000000000e+04,-4.990000000000000000e+02,-6.926000000000000000e+03,3.910000000000000000e+02,-4.636000000000000000e+03,-6.400000000000000000e+01,9.400000000000000000e+01,-1.200000000000000000e+02,0.000000000000000000e+00
3.720000000000000195e+00,1.447100000000000000e+04,-1.217700000000000000e+04,-9.496000000000000000e+03,-9.790000000000000000e+02,-4.310000000000000000e+02,-4.160000000000000000e+02,-7.900000000000000000e+01,8.500000000000000000e+01,-1.150000000000000000e+02,0.000000000000000000e+00
3.729999999999999982e+00,6.152000000000000000e+03,-2.168000000000000000e+03,-3.979000000000000000e+03,5.729000000000000000e+03,1.965000000000000000e+03,-1.220000000000000000e+02,-7.900000000000000000e+01,8.500000000000000000e+01,-1.150000000000000000e+02,0.000000000000000000e+00
3.740000000000000213e+00,1.719000000000000000e+03,-2.737000000000000000e+03,2.269000000000000000e+03,7.095000000000000000e+03,2.366000000000000000e+03,7.600000000000000000e+01,-8.100000000000000000e+01,8.100000000000000000e+01,-1.110000000000000000e+02,0.000000000000000000e+00
3.750000000000000000e+00,-4.730000000000000000e+02,-6.799000000000000000e+03,2.426000000000000000e+04,4.457000000000000000e+03,6.380000000000000000e+02,-4.320000000000000000e+02,-8.100000000000000000e+01,8.100000000000000000e+01,-1.110000000000000000e+02,0.000000000000000000e+00
3.759999999999999787e+00,4.910000000000000000e+02,-1.018300000000000000e+04,4.428000000000000000e+03,-4.829000000000000000e+03,1.866000000000000000e+03,-8.800000000000000000e+02,-7.800000000000000000e+01,7.800000000000000000e+01,-1.280000000000000000e+02,0.000000000000000000e+00
3.770000000000000018e+00,5.816000000000000000e+03,-1.744100000000000000e+04,1.808000000000000000e+03,-4.513000000000000000e+03,3.394000000000000000e+03,2.420000000000000000e+02,-7.800000000000000000e+01,7.800000000000000000e+01,-1.280000000000000000e+02,0.000000000000000000e+00
3.779999999999999805e+00,1.106000000000000000e+03,-7.985000000000000000e+03,-6.391000000000000000e+03,-4.486000000000000000e+03,7.460000000000000000e+02,1.578000000000000000e+03,-8.100000000000000000e+01,8.100000000000000000e+01,-1.270000000000000000e+02,0.000000000000000000e+00
3.790000000000000036e+00,-4.192000000000000000e+03,-3.573000000000000000e+03,-7.658000000000000000e+03,-2.971000000000000000e+03,6.600000000000000000e+01,1.805000000000000000e+03,-8.100000000000000000e+01,8.100000000000000000e+01,-1.270000000000000000e+02,0.000000000000000000e+00
3.799999999999999822e+00,-3.812000000000000000e+03,-4.510000000000000000e+03,-6.462000000000000000e+03,4.860000000000000000e+02,7.130000000000000000e+02,1.069000000000000000e+03,-7.900000000000000000e+01,8.900000000000000000e+01,-1.210000000000000000e+02,0.000000000000000000e+00
3.810000000000000053e+00,-4.509000000000000000e+03,-4.625000000000000000e+03,-1.232000000000000000e+03,3.173000000000000000e+03,4.640000000000000000e+02,8.600000000000000000e+02,-7.900000000000000000e+01,8.900000000000000000e+01,-1.210000000000000000e+02,0.000000000000000000e+00
3.819999999999999840e+00,-3.066000000000000000e+03,-5.401000000000000000e+03,1.092000000000000000e+03,3.855000000000000000e+03,1.138000000000000000e+03,9.180000000000000000e+02,-7.800000000000000000e+01,8.400000000000000000e+01,-1.200000000000000000e+02,0.000000000000000000e+00
3.830000000000000071e+00,-1.277000000000000000e+03,-6.270000000000000000e+03,2.431000000000000000e+03,3.603000000000000000e+03,1.635000000000000000e+03,1.110000000000000000e+03,-7.800000000000000000e+01,8.400000000000000000e+01,-1.200000000000000000e+02,0.000000000000000000e+00
3.839999999999999858e+00,-1.442000000000000000e+03,-6.527000000000000000e+03,1.005100000000000000e+04,3.222000000000000000e+03,1.046000000000000000e+03,1.214000000000000000e+03,-7.000000000000000000e+01,7.800000000000000000e+01,-1.280000000000000000e+02,0.000000000000000000e+00
3.850000000000000089e+00,-1.251000000000000000e+03,-5.741000000000000000e+03,3.561000000000000000e+03,-1.811000000000000000e+03,5.990000000000000000e+02,9.330000000000000000e+02,-7.000000000000000000e+01,7.800000000000000000e+01,-1.280000000000000000e+02,0.000000000000000000e+00
3.859999999999999876e+00,-3.210000000000000000e+02,-6.584000000000000000e+03,6.960000000000000000e+02,-2.265000000000000000e+03,6.870000000000000000e+02,9.390000000000000000e+02,-6.600000000000000000e+01,7.800000000000000000e+01,-1.340000000000000000e+02,0.000000000000000000e+00
3.870000000000000107e+00,3.280000000000000000e+02,-5.131000000000000000e+03,-1.376000000000000000e+03,-1.827000000000000000e+03,6.770000000000000000e+02,7.880000000000000000e+02,-6.600000000000000000e+01,7.800000000000000000e+01,-1.340000000000000000e+02,0.000000000000000000e+00
3.879999999999999893e+00,7.000000000000000000e+02,-3.463000000000000000e+03,-2.701000000000000000e+03,-6.080000000000000000e+02,4.620000000000000000e+02,6.910000000000000000e+02,-6.400000000000000000e+01,8.600000000000000000e+01,-1.260000000000000000e+02,0.000000000000000000e+00
3.890000000000000124e+00,8.030000000000000000e+02,-2.427000000000000000e+03,-2.134000000000000000e+03,9.790000000000000000e+02,3.450000000000000000e+02,4.830000000000000000e+02,-6.400000000000000000e+01,8.600000000000000000e+01,-1.260000000000000000e+02,0.000000000000000000e+00
3.899999999999999911e+00,9.940000000000000000e+02,-8.140000000000000000e+02,-1.827000000000000000e+03,2.431000000000000000e+03,5.360000000000000000e+02,3.940000000000000000e+02,-6.300000000000000000e+01,8.300000000000000000e+01,-1.350000000000000000e+02,0.000000000000000000e+00
3.910000000000000142e+00,3.550000000000000000e+02,8.390000000000000000e+02,-1.431000000000000000e+03,3.573000000000000000e+03,6.490000000000000000e+02,2.230000000000000000e+02,-6.300000000000000000e+01,8.300000000000000000e+01,-1.350000000000000000e+02,0.000000000000000000e+00
3.919999999999999929e+00,1.180000000000000000e+02,1.694000000000000000e+03,-8.150000000000000000e+02,4.298000000000000000e+03,6.530000000000000000e+02,-1.730000000000000000e+02,-6.100000000000000000e+01,8.100000000000000000e+01,-1.350000000000000000e+02,0.000000000000000000e+00
3.930000000000000160e+00,1.520000000000000000e+02,2.696000000000000000e+03,-1.940000000000000000e+02,4.631000000000000000e+03,1.050000000000000000e+03,-5.680000000000000000e+02,-6.100000000000000000e+01,8.100000000000000000e+01,-1.350000000000000000e+02,0.000000000000000000e+00
3.939999999999999947e+00,6.770000000000000000e+02,4.230000000000000000e+03,1.362000000000000000e+03,4.347000000000000000e+03,2.550000000000000000e+02,-9.630000000000000000e+02,-6.000000000000000000e+01,6.800000000000000000e+01,-1.440000000000000000e+02,0.000000000000000000e+00
3.950000000000000178e+00,9.480000000000000000e+02,4.868000000000000000e+03,1.454000000000000000e+03,2.834000000000000000e+03,7.700000000000000000e+01,-1.373000000000000000e+03,-6.000000000000000000e+01,6.800000000000000000e+01,-1.440000000000000000e+02,0.000000000000000000e+00
3.959999999999999964e+00,2.910000000000000000e+02,5.839000000000000000e+03,1.025000000000000000e+03,-4.050000000000000000e+02,-2.960000000000000000e+02,-1.658000000000000000e+03,-6.000000000000000000e+01,6.200000000000000000e+01,-1.500000000000000000e+02,0.000000000000000000e+00
3.970000000000000195e+00,1.300000000000000000e+01,5.341000000000000000e+03,-6.000000000000000000e+00,-3.087000000000000000e+03,-6.180000000000000000e+02,-2.019000000000000000e+03,-6.000000000000000000e+01,6.200000000000000000e+01,-1.500000000000000000e+02,0.000000000000000000e+00
3.979999999999999982e+00,5.400000000000000000e+02,3.805000000000000000e+03,-1.569000000000000000e+03,-4.089000000000000000e+03,-1.093000000000000000e+03,-2.070000000000000000e+03,-6.400000000000000000e+01,6.000000000000000000e+01,-1.460000000000000000e+02,0.000000000000000000e+00
3.990000000000000213e+00,-1.936000000000000000e+03,2.515000000000000000e+03,-5.870000000000000000e+02,-3.510000000000000000e+03,-1.339000000000000000e+03,-1.767000000000000000e+03,-6.400000000000000000e+01,6.000000000000000000e+01,-1.460000000000000000e+02,0.000000000000000000e+00
4.000000000000000000e+00,-2.860000000000000000e+02,1.686000000000000000e+03,-2.182000000000000000e+03,-2.251000000000000000e+03,-1.160000000000000000e+02,-1.582000000000000000e+03,-6.600000000000000000e+01,6.800000000000000000e+01,-1.500000000000000000e+02,0.000000000000000000e+00
4.009999999999999787e+00,-5.080000000000000000e+02,1.442000000000000000e+03,-1.888000000000000000e+03,-1.281000000000000000e+03,4.950000000000000000e+02,-1.162000000000000000e+03,-6.600000000000000000e+01,6.800000000000000000e+01,-1.500000000000000000e+02,0.000000000000000000e+00
4.019999999999999574e+00,-5.370000000000000000e+02,1.321000000000000000e+03,-1.019000000000000000e+03,-5.410000000000000000e+02,4.700000000000000000e+02,-8.450000000000000000e+02,-7.300000000000000000e+01,6.300000000000000000e+01,-1.410000000000000000e+02,0.000000000000000000e+00
4.030000000000000249e+00,-8.840000000000000000e+02,9.150000000000000000e+02,2.691000000000000000e+03,-3.800000000000000000e+02,8.160000000000000000e+02,-5.070000000000000000e+02,-7.300000000000000000e+01,6.300000000000000000e+01,-1.410000000000000000e+02,0.000000000000000000e+00
4.040000000000000036e+00,-5.902000000000000000e+03,-3.560000000000000000e+02,5.107000000000000000e+03,-8.030000000000000000e+02,4.646000000000000000e+03,-1.200000000000000000e+02,-7.000000000000000000e+01,5.800000000000000000e+01,-1.420000000000000000e+02,0.000000000000000000e+00
4.049999999999999822e+00,-2.038000000000000000e+03,2.283000000000000000e+03,9.948000000000000000e+03,3.300000000000000000e+01,1.700000000000000000e+03,-2.700000000000000000e+02,-7.000000000000000000e+01,5.800000000000000000e+01,-1.420000000000000000e+02,0.000000000000000000e+00
4.059999999999999609e+00,2.324000000000000000e+03,1.111000000000000000e+03,8.891000000000000000e+03,-3.151000000000000000e+03,2.538000000000000000e+03,1.060000000000000000e+02,-6.500000000000000000e+01,6.100000000000000000e+01,-1.470000000000000000e+02,0.000000000000000000e+00
4.070000000000000284e+00,9.523000000000000000e+03,-3.754000000000000000e+03,6.569000000000000000e+03,-7.694000000000000000e+03,1.981000000000000000e+03,1.459000000000000000e+03,-6.500000000000000000e+01,6.100000000000000000e+01,-1.470000000000000000e+02,0.000000000000000000e+00
4.080000000000000071e+00,8.177000000000000000e+03,-1.360000000000000000e+04,1.207000000000000000e+03,-7.266000000000000000e+03,2.708000000000000000e+03,3.950000000000000000e+03,-6.600000000000000000e+01,6.800000000000000000e+01,-1.420000000000000000e+02,0.000000000000000000e+00
4.089999999999999858e+00,1.005400000000000000e+04,-2.216400000000000000e+04,-9.000000000000000000e+01,-2.325000000000000000e+03,3.080000000000000000e+02,6.106000000000000000e+03,-6.600000000000000000e+01,6.800000000000000000e+01,-1.420000000000000000e+02,0.000000000000000000e+00
4.099999999999999645e+00,-2.780000000000000000e+03,-1.690400000000000000e+04,1.149000000000000000e+03,-3.730000000000000000e+03,-7.300000000000000000e+01,5.423000000000000000e+03,-5.600000000000000000e+01,8.400000000000000000e+01,-1.320000000000000000e+02,0.000000000000000000e+00
4.110000000000000320e+00,-1.128200000000000000e+04,-1.406300000000000000e+04,1.268000000000000000e+03,-6.028000000000000000e+03,7.550000000000000000e+02,1.741000000000000000e+03,-5.600000000000000000e+01,8.400000000000000000e+01,-1.320000000000000000e+02,0.000000000000000000e+00
4.120000000000000107e+00,-1.190700000000000000e+04,-5.868000000000000000e+03,-5.024000000000000000e+03,-5.500000000000000000e+01,-2.727000000000000000e+03,-2.800000000000000000e+01,-4.100000000000000000e+01,9.300000000000000000e+01,-1.290000000000000000e+02,0.000000000000000000e+00
4.129999999999999893e+00,-3.764000000000000000e+03,-2.362000000000000000e+03,-1.456000000000000000e+03,1.689000000000000000e+03,-1.078000000000000000e+03,-7.150000000000000000e+02,-4.100000000000000000e+01,9.300000000000000000e+01,-1.290000000000000000e+02,0.000000000000000000e+00
4.139999999999999680e+00,-2.476000000000000000e+03,-5.289000000000000000e+03,1.229000000000000000e+03,1.972000000000000000e+03,6.080000000000000000e+02,-5.920000000000000000e+02,-4.300000000000000000e+01,9.900000000000000000e+01,-1.250000000000000000e+02,0.000000000000000000e+00
4.150000000000000355e+00,1.042000000000000000e+03,-1.150700000000000000e+04,3.767000000000000000e+03,3.410000000000000000e+02,1.604000000000000000e+03,6.600000000000000000e+01,-4.300000000000000000e+01,9.900000000000000000e+01,-1.250000000000000000e+02,0.000000000000000000e+00
4.160000000000000142e+00,5.876000000000000000e+03,-1.263900000000000000e+04,-1.602000000000000000e+03,-1.155000000000000000e+03,-1.541000000000000000e+03,5.610000000000000000e+02,-4.200000000000000000e+01,9.800000000000000000e+01,-1.260000000000000000e+02,0.000000000000000000e+00
4.169999999999999929e+00,1.195000000000000000e+03,-1.159200000000000000e+04,-1.672000000000000000e+03,-1.029000000000000000e+03,-2.281000000000000000e+03,1.300000000000000000e+02,-4.200000000000000000e+01,9.800000000000000000e+01,-1.260000000000000000e+02,0.000000000000000000e+00
4.179999999999999716e+00,1.437000000000000000e+03,-7.648000000000000000e+03,-3.599000000000000000e+03,-6.120000000000000000e+02,-7.650000000000000000e+02,-1.600000000000000000e+02,-4.600000000000000000e+01,1.000000000000000000e+02,-1.280000000000000000e+02,0.000000000000000000e+00
4.190000000000000391e+00,2.153000000000000000e+03,-6.103000000000000000e+03,-4.764000000000000000e+03,8.170000000000000000e+02,-3.610000000000000000e+02,-7.170000000000000000e+02,-4.600000000000000000e+01,1.000000000000000000e+02,-1.280000000000000000e+02,0.000000000000000000e+00
4.200000000000000178e+00,1.970000000000000000e+03,-5.395000000000000000e+03,-1.891000000000000000e+03,2.287000000000000000e+03,-2.000000000000000000e+02,-1.250000000000000000e+03,-4.300000000000000000e+01,9.300000000000000000e+01,-1.250000000000000000e+02,0.000000000000000000e+00
4.209999999999999964e+00,2.474000000000000000e+03,-5.952000000000000000e+03,8.870000000000000000e+02,2.322000000000000000e+03,2.630000000000000000e+02,-1.514000000000000000e+03,-4.300000000000000000e+01,9.300000000000000000e+01,-1.250000000000000000e+02,0.000000000000000000e+00
4.219999999999999751e+00,2.318000000000000000e+03,-6.611000000000000000e+03,1.854000000000000000e+03,1.787000000000000000e+03,-3.550000000000000000e+02,-1.548000000000000000e+03,-5.000000000000000000e+01,8.800000000000000000e+01,-1.240000000000000000e+02,0.000000000000000000e+00
4.230000000000000426e+00,1.309000000000000000e+03,-6.548000000000000000e+03,1.652000000000000000e+03,1.187000000000000000e+03,-5.050000000000000000e+02,-1.538000000000000000e+03,-5.000000000000000000e+01,8.800000000000000000e+01,-1.240000000000000000e+02,0.000000000000000000e+00
4.240000000000000213e+00,1.006000000000000000e+03,-6.916000000000000000e+03,1.956000000000000000e+03,5.220000000000000000e+02,-6.980000000000000000e+02,-1.386000000000000000e+03,-5.100000000000000000e+01,8.500000000000000000e+01,-1.290000000000000000e+02,0.000000000000000000e+00
4.250000000000000000e+00,9.700000000000000000e+02,-5.850000000000000000e+03,7.400000000000000000e+02,1.000000000000000000e+02,-9.310000000000000000e+02,-1.164000000000000000e+03,-5.100000000000000000e+01,8.500000000000000000e+01,-1.290000000000000000e+02,0.000000000000000000e+00
4.259999999999999787e+00,1.011000000000000000e+03,-6.032000000000000000e+03,-2.610000000000000000e+02,-1.000000000000000000e+00,-8.930000000000000000e+02,-7.620000000000000000e+02,-5.400000000000000000e+01,8.600000000000000000e+01,-1.320000000000000000e+02,0.000000000000000000e+00
4.269999999999999574e+00,6.000000000000000000e+02,-5.698000000000000000e+03,-1.116000000000000000e+03,4.230000000000000000e+02,-1.066000000000000000e+03,-3.260000000000000000e+02,-5.400000000000000000e+01,8.600000000000000000e+01,-1.320000000000000000e+02,0.000000000000000000e+00
