TIME,ACCX,ACCY,ACCZ,GYRX,GYRY,GYRZ,MAGX,MAGY,MAGZ,LAB
0.000000,815.000000,1656.000000,444.000000,559.000000,-8131.000000,-1189.000000,91.000000,-43.000000,-85.000000,0.000000
0.010000,1606.000000,2324.000000,107.000000,1118.000000,-8515.000000,-1546.000000,29.000000,-195.000000,-47.000000,0.000000
0.020000,1692.000000,3132.000000,234.000000,1608.000000,-8468.000000,-1815.000000,29.000000,-195.000000,-47.000000,0.000000
0.030000,1884.000000,3776.000000,209.000000,1964.000000,-7047.000000,-1912.000000,10.000000,-192.000000,-58.000000,0.000000
0.040000,1796.000000,4202.000000,626.000000,1871.000000,-6179.000000,-2248.000000,10.000000,-192.000000,-58.000000,0.000000
0.050000,1400.000000,4849.000000,1593.000000,1839.000000,-4698.000000,-2241.000000,9.000000,-195.000000,-61.000000,0.000000
0.060000,1817.000000,5243.000000,3022.000000,1214.000000,-3445.000000,-2030.000000,9.000000,-195.000000,-61.000000,0.000000
0.070000,3399.000000,5307.000000,6274.000000,212.000000,-2547.000000,-1071.000000,7.000000,-193.000000,-61.000000,0.000000
0.080000,1539.000000,3282.000000,6398.000000,-1317.000000,99.000000,-344.000000,7.000000,-193.000000,-61.000000,0.000000
0.090000,2526.000000,1732.000000,2292.000000,-1100.000000,2087.000000,663.000000,6.000000,-196.000000,-52.000000,0.000000
0.100000,2405.000000,2122.000000,-1573.000000,-727.000000,2469.000000,2176.000000,6.000000,-196.000000,-52.000000,0.000000
0.110000,1743.000000,2509.000000,-2210.000000,-557.000000,1314.000000,3117.000000,6.000000,-194.000000,-56.000000,0.000000
0.120000,-1291.000000,3657.000000,-2450.000000,-857.000000,225.000000,3381.000000,6.000000,-194.000000,-56.000000,0.000000
0.130000,-5339.000000,5151.000000,-1623.000000,-1310.000000,-2160.000000,3284.000000,2.000000,-194.000000,-58.000000,0.000000
0.140000,-7224.000000,4651.000000,-3251.000000,-2090.000000,-4970.000000,3002.000000,2.000000,-194.000000,-58.000000,0.000000
0.150000,-7434.000000,4620.000000,-3705.000000,-2203.000000,-9669.000000,3135.000000,-15.000000,-193.000000,-65.000000,0.000000
0.160000,-5532.000000,4529.000000,-3305.000000,-1874.000000,-12869.000000,2917.000000,-15.000000,-193.000000,-65.000000,0.000000
0.170000,-2432.000000,4842.000000,-2545.000000,-1776.000000,-14809.000000,2514.000000,-29.000000,-185.000000,-67.000000,0.000000
0.180000,872.000000,5308.000000,-1512.000000,-1734.000000,-15038.000000,1873.000000,-29.000000,-185.000000,-67.000000,0.000000
0.190000,4391.000000,5475.000000,182.000000,-1549.000000,-12805.000000,1062.000000,-66.000000,-184.000000,-64.000000,0.000000
0.200000,7551.000000,5082.000000,2119.000000,-1164.000000,-9830.000000,142.000000,-66.000000,-184.000000,-64.000000,0.000000
0.210000,9433.000000,5114.000000,3474.000000,-856.000000,-5453.000000,-629.000000,-94.000000,-178.000000,-48.000000,0.000000
0.220000,8652.000000,5204.000000,4093.000000,-820.000000,-18.000000,-1387.000000,-94.000000,-178.000000,-48.000000,0.000000
0.230000,4958.000000,4786.000000,3458.000000,-558.000000,4286.000000,-2474.000000,-96.000000,-180.000000,-46.000000,0.000000
0.240000,1642.000000,4656.000000,2686.000000,-101.000000,6735.000000,-2992.000000,-96.000000,-180.000000,-46.000000,0.000000
0.250000,638.000000,4562.000000,1804.000000,458.000000,8275.000000,-3012.000000,-89.000000,-179.000000,-47.000000,0.000000
0.260000,1558.000000,4910.000000,1197.000000,861.000000,9626.000000,-3251.000000,-89.000000,-179.000000,-47.000000,0.000000
0.270000,1962.000000,5309.000000,559.000000,1265.000000,11265.000000,-3564.000000,-72.000000,-186.000000,-54.000000,0.000000
0.280000,2534.000000,5236.000000,-613.000000,1682.000000,12945.000000,-3704.000000,-72.000000,-186.000000,-54.000000,0.000000
0.290000,2755.000000,4639.000000,-1567.000000,1820.000000,13686.000000,-3465.000000,-49.000000,-193.000000,-65.000000,0.000000
0.300000,2372.000000,3914.000000,-1659.000000,1618.000000,13126.000000,-3062.000000,-49.000000,-193.000000,-65.000000,0.000000
0.310000,1586.000000,3318.000000,-852.000000,1208.000000,11531.000000,-2517.000000,-7.000000,-199.000000,-59.000000,0.000000
0.320000,1157.000000,2591.000000,1055.000000,265.000000,8961.000000,-1863.000000,-7.000000,-199.000000,-59.000000,0.000000
0.330000,907.000000,897.000000,1304.000000,-868.000000,6631.000000,-890.000000,20.000000,-198.000000,-48.000000,0.000000
0.340000,127.000000,-241.000000,88.000000,-1700.000000,4902.000000,16.000000,20.000000,-198.000000,-48.000000,0.000000
0.350000,-93.000000,308.000000,337.000000,-2401.000000,3766.000000,572.000000,32.000000,-190.000000,-44.000000,0.000000
0.360000,1025.000000,1450.000000,-537.000000,-2140.000000,3713.000000,255.000000,32.000000,-190.000000,-44.000000,0.000000
0.370000,105.000000,3324.000000,-2104.000000,-2273.000000,4637.000000,523.000000,31.000000,-193.000000,-43.000000,0.000000
0.380000,-1693.000000,3261.000000,-3204.000000,-3499.000000,3421.000000,1320.000000,42.000000,-188.000000,-42.000000,0.000000
0.390000,-2240.000000,3293.000000,-3250.000000,-3460.000000,2497.000000,1446.000000,43.000000,-185.000000,-43.000000,0.000000
0.400000,-3355.000000,3396.000000,-6469.000000,-2041.000000,323.000000,1420.000000,47.000000,-187.000000,-53.000000,0.000000
0.410000,-5764.000000,2761.000000,-7515.000000,-186.000000,-1819.000000,796.000000,48.000000,-180.000000,-54.000000,0.000000
0.420000,-5179.000000,5403.000000,1436.000000,-291.000000,-3228.000000,406.000000,38.000000,-182.000000,-54.000000,0.000000
0.430000,-862.000000,8383.000000,4328.000000,-1149.000000,-4801.000000,1182.000000,38.000000,-182.000000,-54.000000,0.000000
0.440000,1872.000000,10491.000000,3620.000000,-1291.000000,-5502.000000,1591.000000,32.000000,-178.000000,-58.000000,0.000000
0.450000,2390.000000,8097.000000,5577.000000,-967.000000,-6424.000000,453.000000,32.000000,-178.000000,-58.000000,0.000000
0.460000,1392.000000,2888.000000,3699.000000,57.000000,-6417.000000,-649.000000,18.000000,-180.000000,-68.000000,0.000000
0.470000,171.000000,1320.000000,3011.000000,884.000000,-6379.000000,-904.000000,18.000000,-180.000000,-68.000000,0.000000
0.480000,808.000000,3060.000000,2489.000000,1509.000000,-5905.000000,-1351.000000,6.000000,-180.000000,-74.000000,0.000000
0.490000,1752.000000,4412.000000,2271.000000,2027.000000,-5026.000000,-1779.000000,6.000000,-180.000000,-74.000000,0.000000
0.500000,1976.000000,5007.000000,2275.000000,2359.000000,-3468.000000,-2242.000000,-1.000000,-185.000000,-77.000000,0.000000
0.510000,1864.000000,5522.000000,2057.000000,2710.000000,-1456.000000,-2698.000000,-1.000000,-185.000000,-77.000000,0.000000
0.520000,1560.000000,6101.000000,1670.000000,3100.000000,666.000000,-3109.000000,-2.000000,-184.000000,-70.000000,0.000000
0.530000,1180.000000,6811.000000,978.000000,3358.000000,2429.000000,-3402.000000,-2.000000,-184.000000,-70.000000,0.000000
0.540000,862.000000,7062.000000,532.000000,3471.000000,3793.000000,-3441.000000,6.000000,-188.000000,-66.000000,0.000000
0.550000,673.000000,6863.000000,-169.000000,3610.000000,4804.000000,-3252.000000,6.000000,-188.000000,-66.000000,0.000000
0.560000,474.000000,6050.000000,172.000000,3434.000000,5149.000000,-2855.000000,19.000000,-197.000000,-49.000000,0.000000
0.570000,185.000000,5056.000000,2473.000000,2365.000000,4825.000000,-2307.000000,19.000000,-197.000000,-49.000000,0.000000
0.580000,284.000000,3118.000000,3693.000000,964.000000,3958.000000,-1656.000000,28.000000,-198.000000,-42.000000,0.000000
0.590000,396.000000,814.000000,4363.000000,-270.000000,3239.000000,-939.000000,28.000000,-198.000000,-42.000000,0.000000
0.600000,337.000000,-696.000000,3333.000000,-859.000000,3036.000000,-580.000000,47.000000,-193.000000,-29.000000,0.000000
0.610000,559.000000,-892.000000,1252.000000,-961.000000,3561.000000,-47.000000,47.000000,-193.000000,-29.000000,0.000000
0.620000,420.000000,1335.000000,-138.000000,-562.000000,4263.000000,334.000000,52.000000,-194.000000,-30.000000,0.000000
0.630000,-624.000000,2343.000000,-414.000000,-975.000000,3556.000000,375.000000,52.000000,-194.000000,-30.000000,0.000000
0.640000,-1508.000000,2226.000000,204.000000,-2519.000000,2442.000000,624.000000,55.000000,-197.000000,-23.000000,0.000000
0.650000,-582.000000,1021.000000,-659.000000,-3352.000000,1437.000000,1014.000000,55.000000,-197.000000,-23.000000,0.000000
0.660000,-224.000000,1022.000000,-888.000000,-3448.000000,768.000000,1337.000000,54.000000,-196.000000,-24.000000,0.000000
0.670000,79.000000,1588.000000,-1802.000000,-3235.000000,53.000000,1539.000000,54.000000,-196.000000,-24.000000,0.000000
0.680000,180.000000,1860.000000,-2786.000000,-2789.000000,-538.000000,1805.000000,52.000000,-190.000000,-38.000000,0.000000
0.690000,-668.000000,2093.000000,-3752.000000,-2242.000000,-1010.000000,2111.000000,52.000000,-190.000000,-38.000000,0.000000
0.700000,-2160.000000,2539.000000,-4857.000000,-1537.000000,-1290.000000,2217.000000,45.000000,-193.000000,-47.000000,0.000000
0.710000,-4178.000000,3226.000000,-5641.000000,-852.000000,-1591.000000,1767.000000,45.000000,-193.000000,-47.000000,0.000000
0.720000,-5831.000000,3625.000000,-5386.000000,-343.000000,-2433.000000,1020.000000,38.000000,-192.000000,-50.000000,0.000000
0.730000,2489.000000,3997.000000,230.000000,-790.000000,-12324.000000,340.000000,-1.000000,-189.000000,-65.000000,0.000000
0.740000,3505.000000,2858.000000,253.000000,-132.000000,-11111.000000,-235.000000,-29.000000,-185.000000,-75.000000,0.000000
0.750000,3611.000000,3758.000000,1112.000000,375.000000,-9178.000000,-989.000000,-29.000000,-185.000000,-75.000000,0.000000
0.760000,2855.000000,4692.000000,1727.000000,692.000000,-7107.000000,-1757.000000,-48.000000,-190.000000,-62.000000,0.000000
0.770000,376.000000,4893.000000,3379.000000,1054.000000,-2248.000000,-3620.000000,-60.000000,-186.000000,-62.000000,0.000000
0.780000,-909.000000,7351.000000,3353.000000,985.000000,-262.000000,-4638.000000,-59.000000,-191.000000,-57.000000,0.000000
0.790000,-1775.000000,8487.000000,2781.000000,777.000000,425.000000,-5038.000000,-54.000000,-198.000000,-54.000000,0.000000
0.800000,-4260.000000,9692.000000,1176.000000,-723.000000,1264.000000,-5691.000000,-20.000000,-204.000000,-52.000000,0.000000
0.810000,-4504.000000,8669.000000,454.000000,-1402.000000,692.000000,-5631.000000,-20.000000,-204.000000,-52.000000,0.000000
0.820000,-5305.000000,6937.000000,-786.000000,-2317.000000,-1842.000000,-5590.000000,-4.000000,-202.000000,-58.000000,0.000000
0.830000,-5419.000000,6606.000000,-1252.000000,-2656.000000,-3610.000000,-5598.000000,14.000000,-196.000000,-58.000000,0.000000
0.840000,8191.000000,2592.000000,-23703.000000,25590.000000,16152.000000,3320.000000,-16909.000000,-8214.000000,5869.000000,0.000000
0.850000,-354.000000,5821.000000,-2180.000000,17448.000000,-5948.000000,-4164.000000,22.000000,-22.000000,-66.000000,0.000000
0.860000,3475.000000,2840.000000,-3345.000000,-4287.000000,-5036.000000,-2867.000000,22.000000,-180.000000,-78.000000,0.000000
0.870000,6000.000000,659.000000,-4344.000000,-3977.000000,-3685.000000,-1658.000000,20.000000,-164.000000,-88.000000,0.000000
0.880000,8796.000000,-4410.000000,-7457.000000,-2791.000000,-1452.000000,198.000000,13.000000,-155.000000,-99.000000,0.000000
0.890000,7351.000000,-6487.000000,-5766.000000,-1627.000000,-465.000000,765.000000,13.000000,-155.000000,-99.000000,0.000000
0.900000,5912.000000,-7576.000000,-4157.000000,-235.000000,559.000000,574.000000,2.000000,-146.000000,-104.000000,0.000000
0.910000,-400.000000,1151.000000,782.000000,2.000000,-146.000000,-104.000000,8446.000000,29450.000000,1044.000000,0.000000
0.920000,1470.000000,689.000000,-606.000000,1408.000000,8.000000,-142.000000,-102.000000,8218.000000,29962.000000,0.000000
0.930000,-1054.000000,-3772.000000,4170.000000,2018.000000,-2293.000000,1820.000000,9.000000,-145.000000,-99.000000,0.000000
0.940000,-130.000000,-447.000000,3230.000000,2656.000000,-1990.000000,2290.000000,1.000000,-149.000000,-99.000000,0.000000
0.950000,-190.000000,669.000000,2741.000000,3129.000000,-1219.000000,1870.000000,-11.000000,-163.000000,-107.000000,0.000000
0.960000,-926.000000,1717.000000,3348.000000,3693.000000,-290.000000,1607.000000,-11.000000,-163.000000,-107.000000,0.000000
0.970000,-5028.000000,7209.000000,8901.000000,3068.000000,-2032.000000,1514.000000,-15.000000,-169.000000,-85.000000,0.000000
0.980000,-8173.000000,12133.000000,8062.000000,1507.000000,-5347.000000,1454.000000,-15.000000,-169.000000,-85.000000,0.000000
0.990000,-5070.000000,14383.000000,971.000000,807.000000,-5366.000000,-784.000000,-42.000000,-180.000000,-78.000000,0.000000
1.000000,1319.000000,11579.000000,2459.000000,852.000000,-3078.000000,-1162.000000,-59.000000,-195.000000,-65.000000,0.000000
1.010000,37.000000,2809.000000,3673.000000,-2345.000000,2590.000000,-2367.000000,-60.000000,-192.000000,-58.000000,0.000000
1.020000,-600.000000,3249.000000,2747.000000,-1996.000000,3142.000000,-2532.000000,-57.000000,-189.000000,-69.000000,0.000000
1.030000,-573.000000,3696.000000,1059.000000,-2044.000000,2466.000000,-2603.000000,-57.000000,-189.000000,-69.000000,0.000000
1.040000,618.000000,2172.000000,-486.000000,-2051.000000,1350.000000,-2116.000000,-47.000000,-183.000000,-77.000000,0.000000
1.050000,2524.000000,143.000000,-944.000000,-1781.000000,452.000000,-1558.000000,-47.000000,-183.000000,-77.000000,0.000000
1.060000,4348.000000,-1542.000000,-1731.000000,-1316.000000,641.000000,-829.000000,-33.000000,-185.000000,-81.000000,0.000000
1.070000,5747.000000,-4992.000000,-4376.000000,-208.000000,2284.000000,293.000000,-31.000000,-183.000000,-77.000000,0.000000
1.080000,4399.000000,-5799.000000,-5377.000000,767.000000,2945.000000,815.000000,-31.000000,-183.000000,-77.000000,0.000000
1.090000,1719.000000,-5621.000000,-4334.000000,1593.000000,3116.000000,854.000000,-28.000000,-174.000000,-86.000000,0.000000
1.100000,-13936.000000,-11011.000000,4079.000000,25590.000000,7945.000000,-7931.000000,-7162.000000,21247.000000,-21761.000000,0.000000
1.110000,482.000000,2693.000000,494.000000,954.000000,-5714.000000,4578.000000,-22.000000,-180.000000,-82.000000,0.000000
1.120000,2376.000000,3249.000000,4732.000000,1707.000000,-6750.000000,4885.000000,-31.000000,-185.000000,-75.000000,0.000000
1.130000,3615.000000,-458.000000,5453.000000,3317.000000,-4083.000000,4781.000000,-31.000000,-185.000000,-75.000000,0.000000
1.140000,1790.000000,-1022.000000,6175.000000,3831.000000,-957.000000,4595.000000,-54.000000,-184.000000,-66.000000,0.000000
1.150000,-2506.000000,4487.000000,4154.000000,4583.000000,1748.000000,4043.000000,-72.000000,-196.000000,-64.000000,0.000000
1.160000,-2665.000000,6352.000000,4458.000000,5016.000000,2812.000000,3577.000000,-72.000000,-196.000000,-64.000000,0.000000
1.170000,-2443.000000,7441.000000,6476.000000,5267.000000,3487.000000,3463.000000,-76.000000,-186.000000,-50.000000,0.000000
1.180000,-960.000000,8498.000000,7132.000000,4690.000000,3347.000000,3419.000000,-76.000000,-186.000000,-50.000000,0.000000
1.190000,2463.000000,14445.000000,683.000000,3690.000000,-900.000000,4629.000000,-83.000000,-191.000000,-29.000000,0.000000
1.200000,-6941.000000,13778.000000,974.000000,-54.000000,-4322.000000,1706.000000,-103.000000,-185.000000,-21.000000,0.000000
1.210000,-6027.000000,9285.000000,-1016.000000,-437.000000,-3279.000000,786.000000,-103.000000,-185.000000,-21.000000,0.000000
1.220000,18963.000000,28408.000000,23554.000000,26612.000000,-25859.000000,19711.000000,-4353.000000,-5377.000000,2592.000000,0.000000
1.230000,-2693.000000,2363.000000,-1492.000000,-1812.000000,-2911.000000,-1975.000000,-110.000000,-182.000000,-10.000000,0.000000
1.240000,-2169.000000,4401.000000,-721.000000,-1595.000000,-3024.000000,-2877.000000,-108.000000,-190.000000,-12.000000,0.000000
1.250000,-1101.000000,6077.000000,-2124.000000,-1912.000000,-3218.000000,-3521.000000,-108.000000,-190.000000,-12.000000,0.000000
1.260000,791.000000,6361.000000,-2999.000000,-2030.000000,-4156.000000,-3782.000000,-108.000000,-192.000000,-14.000000,0.000000
1.270000,3075.000000,5694.000000,-3331.000000,-2299.000000,-5091.000000,-3529.000000,-108.000000,-192.000000,-14.000000,0.000000
1.280000,6974.000000,3709.000000,-2660.000000,-2262.000000,-3497.000000,-2312.000000,-96.000000,-192.000000,-8.000000,0.000000
1.290000,8254.000000,1982.000000,-1411.000000,-1934.000000,-1431.000000,-1893.000000,-90.000000,-198.000000,-6.000000,0.000000
1.300000,8522.000000,365.000000,-530.000000,-1365.000000,1264.000000,-1494.000000,-90.000000,-198.000000,-6.000000,0.000000
1.310000,7390.000000,-500.000000,507.000000,-1357.000000,2682.000000,-988.000000,-90.000000,-202.000000,-10.000000,0.000000
1.320000,-1370.000000,-2349.000000,-378.000000,-723.000000,3455.000000,-482.000000,-87.000000,-201.000000,-17.000000,0.000000
1.330000,-4445.000000,5228.000000,421.000000,-664.000000,-1145.000000,2043.000000,-76.000000,-204.000000,-26.000000,0.000000
1.340000,-1930.000000,-482.000000,1156.000000,663.000000,-1657.000000,2902.000000,-76.000000,-204.000000,-26.000000,0.000000
1.350000,998.000000,-884.000000,3010.000000,2027.000000,121.000000,3598.000000,-86.000000,-204.000000,-22.000000,0.000000
1.360000,-2055.000000,4145.000000,2880.000000,2783.000000,764.000000,3284.000000,-93.000000,-191.000000,-23.000000,0.000000
1.370000,-2425.000000,5688.000000,4512.000000,2943.000000,613.000000,2763.000000,-101.000000,-191.000000,-9.000000,0.000000
1.380000,-1840.000000,6211.000000,6545.000000,2840.000000,1034.000000,2442.000000,-101.000000,-191.000000,-9.000000,0.000000
1.390000,-8.000000,7149.000000,5460.000000,2306.000000,947.000000,2166.000000,-109.000000,-189.000000,-9.000000,0.000000
1.400000,2109.000000,9844.000000,-58.000000,2241.000000,-261.000000,2534.000000,-114.000000,-186.000000,2.000000,0.000000
1.410000,2161.000000,9447.000000,-1949.000000,1301.000000,-992.000000,1551.000000,-114.000000,-186.000000,2.000000,0.000000
1.420000,-61.000000,9683.000000,-1212.000000,281.000000,-1512.000000,180.000000,-118.000000,-178.000000,0.000000,0.000000
1.430000,-1330.000000,8558.000000,-1373.000000,-583.000000,-641.000000,-622.000000,-118.000000,-178.000000,0.000000,0.000000
1.440000,-1849.000000,6871.000000,-1458.000000,-665.000000,-765.000000,-1432.000000,-122.000000,-180.000000,6.000000,0.000000
1.450000,-14596.000000,19987.000000,1275.000000,-20481.000000,-17414.000000,-30986.000000,19711.000000,1791.000000,6400.000000,0.000000
1.460000,3093.000000,4884.000000,464.000000,-1154.000000,1856.000000,-3004.000000,-114.000000,-184.000000,2.000000,0.000000
1.470000,1994.000000,5194.000000,43.000000,-1285.000000,2772.000000,-3544.000000,-110.000000,-188.000000,12.000000,0.000000
1.480000,911.000000,5751.000000,113.000000,-1698.000000,3263.000000,-3873.000000,-110.000000,-188.000000,12.000000,0.000000
1.490000,642.000000,5866.000000,-535.000000,-1916.000000,3190.000000,-4086.000000,-104.000000,-192.000000,-4.000000,0.000000
1.500000,-3898.000000,8963.000000,-20969.000000,-2564.000000,1528.000000,-1013.000000,-26385.000000,16639.000000,-769.000000,0.000000
1.510000,1053.000000,5991.000000,-1275.000000,-1862.000000,2231.000000,-3980.000000,-90.000000,-196.000000,-16.000000,0.000000
1.520000,261.000000,4803.000000,-1713.000000,-2157.000000,1471.000000,-3553.000000,-80.000000,-204.000000,-18.000000,0.000000
1.530000,-488.000000,4124.000000,-1159.000000,-2293.000000,1152.000000,-3499.000000,-80.000000,-204.000000,-18.000000,0.000000
1.540000,-473.000000,3682.000000,282.000000,-2315.000000,650.000000,-3192.000000,-65.000000,-209.000000,-27.000000,0.000000
1.550000,-641.000000,3489.000000,1247.000000,-2447.000000,-213.000000,-2728.000000,-65.000000,-209.000000,-27.000000,0.000000
1.560000,-520.000000,3090.000000,2281.000000,-2574.000000,-817.000000,-1822.000000,-57.000000,-209.000000,-35.000000,0.000000
1.570000,4188.000000,1978.000000,-298.000000,-3420.000000,-2817.000000,386.000000,-53.000000,-205.000000,-37.000000,0.000000
1.580000,4883.000000,-208.000000,-518.000000,-3181.000000,-2591.000000,1279.000000,-53.000000,-205.000000,-37.000000,0.000000
1.590000,6152.000000,-2061.000000,-1363.000000,-1857.000000,-1044.000000,1883.000000,-56.000000,-202.000000,-46.000000,0.000000
1.600000,4811.000000,-2167.000000,-620.000000,-1033.000000,781.000000,2120.000000,-56.000000,-202.000000,-46.000000,0.000000
1.610000,2694.000000,-1527.000000,-1141.000000,261.000000,3118.000000,2042.000000,-64.000000,-202.000000,-54.000000,0.000000
1.620000,-255.000000,-1142.000000,-1406.000000,1281.000000,3776.000000,2470.000000,-64.000000,-202.000000,-54.000000,0.000000
1.630000,-1262.000000,-519.000000,-673.000000,1993.000000,3007.000000,3036.000000,-64.000000,-192.000000,-54.000000,0.000000
1.640000,-556.000000,462.000000,-112.000000,2717.000000,1962.000000,3485.000000,-64.000000,-192.000000,-54.000000,0.000000
1.650000,-730.000000,1688.000000,1183.000000,3243.000000,1080.000000,3387.000000,-69.000000,-191.000000,-51.000000,0.000000
1.660000,-191.000000,-51.000000,8349.000000,-9974.000000,-1760.000000,3822.000000,3902.000000,3811.000000,-693.000000,0.000000
1.670000,-1508.000000,4903.000000,4472.000000,3773.000000,-1591.000000,2618.000000,-76.000000,-192.000000,-38.000000,0.000000
1.680000,-679.000000,5812.000000,4357.000000,3467.000000,-2653.000000,2435.000000,-77.000000,-191.000000,-39.000000,0.000000
1.690000,497.000000,6928.000000,2494.000000,3317.000000,-4060.000000,2711.000000,-77.000000,-191.000000,-39.000000,0.000000
1.700000,1176.000000,8851.000000,638.000000,3464.000000,-4507.000000,3338.000000,-90.000000,-192.000000,-22.000000,0.000000
1.710000,976.000000,9209.000000,-111.000000,2889.000000,-4144.000000,-90.000000,-90.000000,-192.000000,-22.000000,0.000000
1.720000,-239.000000,11115.000000,2025.000000,1755.000000,-3545.000000,1672.000000,-97.000000,-191.000000,-13.000000,0.000000
1.730000,-1485.000000,9963.000000,1726.000000,923.000000,-2135.000000,826.000000,-108.000000,-192.000000,6.000000,0.000000
1.740000,-549.000000,7762.000000,1518.000000,727.000000,-815.000000,315.000000,-108.000000,-192.000000,6.000000,0.000000
1.750000,372.000000,7338.000000,1523.000000,-391.000000,823.000000,483.000000,-108.000000,-190.000000,14.000000,0.000000
1.760000,-1481.000000,5445.000000,206.000000,-1890.000000,1598.000000,-943.000000,-110.000000,-186.000000,14.000000,0.000000
1.770000,-20504.000000,11516.000000,24342.000000,21505.000000,-17674.000000,10242.000000,-27658.000000,18431.000000,1023.000000,0.000000
1.780000,212.000000,6119.000000,415.000000,-2621.000000,339.000000,-2563.000000,-103.000000,-193.000000,-5.000000,0.000000
1.790000,3087.000000,4458.000000,-264.000000,-2587.000000,674.000000,-2342.000000,-101.000000,-195.000000,-9.000000,0.000000
1.800000,3875.000000,3326.000000,-351.000000,-2182.000000,1961.000000,-2161.000000,-101.000000,-195.000000,-9.000000,0.000000
1.810000,5153.000000,928.000000,-662.000000,-1784.000000,5982.000000,-1552.000000,-94.000000,-198.000000,-16.000000,0.000000
1.820000,1143.000000,-2051.000000,-3071.000000,-1562.000000,6738.000000,-1312.000000,-81.000000,-201.000000,-27.000000,0.000000
1.830000,-2213.000000,-3772.000000,-3262.000000,-718.000000,6364.000000,-770.000000,-73.000000,-201.000000,-39.000000,0.000000
1.840000,-839.000000,4744.000000,1579.000000,-1518.000000,-2050.000000,3770.000000,-60.000000,-204.000000,-48.000000,0.000000
1.850000,-2784.000000,1967.000000,891.000000,1082.000000,4780.000000,3196.000000,-76.000000,-194.000000,-44.000000,0.000000
1.860000,-10479.000000,30734.000000,-24054.000000,11281.000000,-19703.000000,19455.000000,-13825.000000,-257.000000,2592.000000,0.000000
1.870000,6181.000000,-9726.000000,1028.000000,-32525.000000,-19962.000000,17151.000000,-13569.000000,-20225.000000,2592.000000,0.000000
1.880000,-4518.000000,9541.000000,-1682.000000,-431.000000,-7868.000000,-1303.000000,-92.000000,-188.000000,-46.000000,0.000000
1.890000,-3560.000000,9078.000000,-1157.000000,-781.000000,-7202.000000,-2447.000000,-93.000000,-185.000000,-25.000000,0.000000
1.900000,1193.000000,7899.000000,86.000000,-1411.000000,-4615.000000,-3606.000000,-98.000000,-190.000000,-16.000000,0.000000
1.910000,2102.000000,7941.000000,40.000000,-2612.000000,-3088.000000,-3575.000000,-98.000000,-190.000000,-16.000000,0.000000
1.920000,2151.000000,7638.000000,304.000000,-3030.000000,-2001.000000,-3929.000000,-90.000000,-196.000000,-16.000000,0.000000
1.930000,2170.000000,7220.000000,152.000000,-3497.000000,-976.000000,-4061.000000,-90.000000,-196.000000,-16.000000,0.000000
1.940000,3129.000000,5931.000000,-658.000000,-3618.000000,-48.000000,-3833.000000,-83.000000,-205.000000,-21.000000,0.000000
1.950000,3502.000000,4804.000000,-750.000000,-3457.000000,225.000000,-3640.000000,-79.000000,-203.000000,-29.000000,0.000000
1.960000,4365.000000,3465.000000,-636.000000,-3383.000000,695.000000,-3194.000000,-79.000000,-203.000000,-29.000000,0.000000
1.970000,5948.000000,1742.000000,-944.000000,-3028.000000,1578.000000,-2390.000000,-67.000000,-205.000000,-37.000000,0.000000
1.980000,8557.000000,-37.000000,-1421.000000,-2741.000000,3108.000000,-1355.000000,-67.000000,-205.000000,-37.000000,0.000000
1.990000,10630.000000,-2088.000000,-821.000000,-2711.000000,4196.000000,-300.000000,-60.000000,-206.000000,-44.000000,0.000000
2.000000,8201.000000,-4459.000000,-1618.000000,-2989.000000,4911.000000,430.000000,-60.000000,-206.000000,-44.000000,0.000000
2.010000,3419.000000,-6324.000000,-3990.000000,-2122.000000,5484.000000,681.000000,-44.000000,-204.000000,-58.000000,0.000000
2.020000,-964.000000,-5512.000000,-4339.000000,-438.000000,5765.000000,1000.000000,-44.000000,-204.000000,-58.000000,0.000000
2.030000,-2143.000000,5057.000000,6488.000000,-535.000000,4593.000000,1860.000000,-43.000000,-193.000000,-67.000000,0.000000
2.040000,359.000000,556.000000,3851.000000,-795.000000,508.000000,4931.000000,-41.000000,-187.000000,-65.000000,0.000000
2.050000,1082.000000,-1234.000000,3054.000000,-31.000000,2964.000000,4952.000000,-41.000000,-187.000000,-65.000000,0.000000
2.060000,-3354.000000,3545.000000,972.000000,1411.000000,4190.000000,4028.000000,-51.000000,-191.000000,-67.000000,0.000000
2.070000,-784.000000,8660.000000,3449.000000,2015.000000,-3855.000000,2933.000000,-57.000000,-183.000000,-67.000000,0.000000
2.080000,3877.000000,-12802.000000,-16127.000000,-2843.000000,-22015.000000,18175.000000,-12545.000000,-16385.000000,2592.000000,0.000000
2.090000,949.000000,4653.000000,463.000000,-454.000000,-2424.000000,-1293.000000,-105.000000,-189.000000,-25.000000,0.000000
2.100000,209.000000,4052.000000,157.000000,-1572.000000,197.000000,-1733.000000,-105.000000,-193.000000,-27.000000,0.000000
2.110000,-731.000000,4114.000000,-88.000000,-2046.000000,425.000000,-2137.000000,-97.000000,-191.000000,-29.000000,0.000000
2.120000,2005.000000,3174.000000,-819.000000,-1787.000000,-237.000000,-2245.000000,-90.000000,-192.000000,-38.000000,0.000000
2.130000,2347.000000,2615.000000,-846.000000,-1614.000000,59.000000,-1911.000000,-90.000000,-192.000000,-38.000000,0.000000
2.140000,2123.000000,693.000000,-853.000000,-868.000000,1423.000000,-518.000000,-80.000000,-192.000000,-48.000000,0.000000
2.150000,324.000000,31.000000,-109.000000,-702.000000,1634.000000,13.000000,-74.000000,-194.000000,-48.000000,0.000000
2.160000,-1306.000000,3836.000000,605.000000,-209.000000,-246.000000,2165.000000,-72.000000,-194.000000,-50.000000,0.000000
2.170000,-1539.000000,2914.000000,1388.000000,415.000000,-211.000000,2271.000000,-75.000000,-189.000000,-57.000000,0.000000
2.180000,-2045.000000,-117.000000,2503.000000,1746.000000,202.000000,2441.000000,-75.000000,-189.000000,-57.000000,0.000000
2.190000,-2100.000000,2027.000000,3328.000000,2549.000000,-391.000000,2589.000000,-81.000000,-189.000000,-51.000000,0.000000
2.200000,-2253.000000,3289.000000,3860.000000,2794.000000,-1077.000000,2244.000000,-89.000000,-187.000000,-49.000000,0.000000
2.210000,-1251.000000,4712.000000,5377.000000,2860.000000,-2409.000000,1419.000000,-91.000000,-183.000000,-41.000000,0.000000
2.220000,-190.000000,5823.000000,4597.000000,2499.000000,-3186.000000,1170.000000,-91.000000,-183.000000,-41.000000,0.000000
2.230000,17151.000000,-6913.000000,12031.000000,2592.000000,-29889.000000,-4096.000000,-29151.000000,-23808.000000,-28412.000000,0.000000
2.240000,-132.000000,9361.000000,768.000000,644.000000,-4467.000000,-267.000000,-100.000000,-186.000000,-24.000000,0.000000
2.250000,-298.000000,7749.000000,659.000000,-209.000000,-1945.000000,-1561.000000,-108.000000,-186.000000,-16.000000,0.000000
2.260000,3107.000000,6771.000000,2077.000000,-389.000000,500.000000,-1697.000000,-110.000000,-186.000000,-6.000000,0.000000
2.270000,1359.000000,5412.000000,1053.000000,-2344.000000,3285.000000,-2368.000000,-106.000000,-190.000000,-6.000000,0.000000
2.280000,-299.000000,4962.000000,933.000000,-2779.000000,3017.000000,-3147.000000,-97.000000,-193.000000,-13.000000,0.000000
2.290000,436.000000,5348.000000,-289.000000,-2655.000000,1830.000000,-3443.000000,-85.000000,-201.000000,-27.000000,0.000000
2.300000,982.000000,4970.000000,-895.000000,-2402.000000,1295.000000,-3212.000000,-85.000000,-201.000000,-27.000000,0.000000
2.310000,2316.000000,326.000000,1721.000000,-1286.000000,-1291.000000,2100.000000,-47.000000,-189.000000,-59.000000,0.000000
2.320000,1474.000000,-1143.000000,3124.000000,123.000000,906.000000,2432.000000,-46.000000,-192.000000,-64.000000,0.000000
2.330000,319.000000,103.000000,3296.000000,568.000000,1856.000000,2801.000000,-55.000000,-191.000000,-63.000000,0.000000
2.340000,-968.000000,2765.000000,3443.000000,1512.000000,3146.000000,3132.000000,-58.000000,-188.000000,-64.000000,0.000000
2.350000,563.000000,6345.000000,2502.000000,1751.000000,5623.000000,2818.000000,-57.000000,-189.000000,-65.000000,0.000000
2.360000,1423.000000,7550.000000,407.000000,1939.000000,4588.000000,3244.000000,-57.000000,-189.000000,-65.000000,0.000000
2.370000,962.000000,9849.000000,168.000000,1721.000000,2571.000000,3034.000000,-62.000000,-190.000000,-62.000000,0.000000
2.380000,-1181.000000,11813.000000,1143.000000,677.000000,168.000000,2327.000000,-62.000000,-190.000000,-62.000000,0.000000
2.390000,-5261.000000,8540.000000,3.000000,-1339.000000,-3182.000000,1121.000000,-56.000000,-186.000000,-60.000000,0.000000
2.400000,-5073.000000,6133.000000,-571.000000,-1196.000000,-4320.000000,349.000000,-63.000000,-191.000000,-61.000000,0.000000
2.410000,-2590.000000,4014.000000,-604.000000,-1066.000000,-5322.000000,-1622.000000,-74.000000,-184.000000,-60.000000,0.000000
2.420000,-816.000000,4022.000000,-487.000000,-1019.000000,-4707.000000,-2408.000000,-74.000000,-184.000000,-60.000000,0.000000
2.430000,1293.000000,5242.000000,153.000000,-1641.000000,-2664.000000,-3037.000000,-80.000000,-182.000000,-50.000000,0.000000
2.440000,1888.000000,5522.000000,269.000000,-1949.000000,-1695.000000,-3238.000000,-81.000000,-191.000000,-53.000000,0.000000
2.450000,2653.000000,3985.000000,-891.000000,-1755.000000,742.000000,-2968.000000,-73.000000,-189.000000,-59.000000,0.000000
2.460000,-23955.000000,4107.000000,16908.000000,4859.000000,-7686.000000,20484.000000,-15882.000000,15359.000000,-15873.000000,0.000000
2.470000,3978.000000,1659.000000,-1583.000000,-1323.000000,1747.000000,-1713.000000,-63.000000,-197.000000,-63.000000,0.000000
2.480000,4278.000000,176.000000,-1837.000000,-1071.000000,2027.000000,-852.000000,-60.000000,-190.000000,-66.000000,0.000000
2.490000,1122.000000,-1686.000000,103.000000,-572.000000,2212.000000,145.000000,-52.000000,-186.000000,-68.000000,0.000000
2.500000,-945.000000,-1141.000000,1068.000000,-19.000000,2180.000000,690.000000,-52.000000,-186.000000,-68.000000,0.000000
2.510000,-2846.000000,4893.000000,3636.000000,-581.000000,255.000000,2644.000000,-44.000000,-182.000000,-72.000000,0.000000
2.520000,-2307.000000,352.000000,3089.000000,442.000000,1269.000000,2596.000000,-44.000000,-182.000000,-72.000000,0.000000
2.530000,-2164.000000,617.000000,3297.000000,1140.000000,2192.000000,2288.000000,-54.000000,-176.000000,-76.000000,0.000000
2.540000,766.000000,5022.000000,2524.000000,2259.000000,794.000000,1570.000000,-49.000000,-179.000000,-75.000000,0.000000
2.550000,28411.000000,-17894.000000,26373.000000,-13567.000000,-22541.000000,-16639.000000,17919.000000,-14849.000000,9983.000000,0.000000
2.560000,-3749.000000,6346.000000,494.000000,-113.000000,-3041.000000,-907.000000,-65.000000,-193.000000,-57.000000,0.000000
2.570000,-3520.000000,6707.000000,269.000000,-238.000000,-2921.000000,-1614.000000,-65.000000,-193.000000,-57.000000,0.000000
2.580000,331.000000,-40.000000,-2963.000000,-2127.000000,-66.000000,-190.000000,-50.000000,8434.000000,-31734.000000,0.000000
2.590000,261.000000,6201.000000,628.000000,-1516.000000,-484.000000,-2444.000000,-67.000000,-189.000000,-51.000000,0.000000
2.600000,318.000000,5400.000000,600.000000,-1772.000000,-158.000000,-2431.000000,-62.000000,-192.000000,-54.000000,0.000000
2.610000,879.000000,4310.000000,47.000000,-1536.000000,282.000000,-2034.000000,-56.000000,-194.000000,-56.000000,0.000000
2.620000,945.000000,3568.000000,-354.000000,-1265.000000,288.000000,-1748.000000,-56.000000,-194.000000,-56.000000,0.000000
2.630000,984.000000,2463.000000,-557.000000,-1139.000000,578.000000,-1367.000000,-58.000000,-190.000000,-60.000000,0.000000
2.640000,1774.000000,-132.000000,379.000000,-612.000000,1756.000000,213.000000,-49.000000,-191.000000,-65.000000,0.000000
2.650000,743.000000,-1438.000000,401.000000,-616.000000,1743.000000,808.000000,-47.000000,-193.000000,-65.000000,0.000000
2.660000,-3115.000000,380.000000,-191.000000,1611.000000,1073.000000,-47.000000,-193.000000,-65.000000,8214.000000,0.000000
2.670000,-1113.000000,1245.000000,2209.000000,-603.000000,-483.000000,2784.000000,-45.000000,-191.000000,-63.000000,0.000000
2.680000,-875.000000,2269.000000,3545.000000,-122.000000,-1226.000000,3034.000000,-47.000000,-185.000000,-71.000000,0.000000
2.690000,755.000000,-748.000000,3740.000000,1217.000000,-138.000000,3416.000000,-60.000000,-186.000000,-70.000000,0.000000
2.700000,-380.000000,794.000000,3358.000000,1664.000000,1173.000000,3097.000000,-60.000000,-186.000000,-70.000000,0.000000
2.710000,-1828.000000,2023.000000,3097.000000,2348.000000,1916.000000,2825.000000,-63.000000,-181.000000,-69.000000,0.000000
2.720000,-2234.000000,3977.000000,3930.000000,3047.000000,1636.000000,2245.000000,-67.000000,-187.000000,-61.000000,0.000000
2.730000,-1844.000000,4832.000000,4562.000000,3004.000000,1215.000000,2084.000000,-67.000000,-187.000000,-61.000000,0.000000
2.740000,-1475.000000,5975.000000,4962.000000,2694.000000,356.000000,2009.000000,-73.000000,-183.000000,-55.000000,0.000000
2.750000,-1180.000000,7843.000000,4122.000000,2228.000000,-1089.000000,1940.000000,-73.000000,-183.000000,-55.000000,0.000000
2.760000,-1232.000000,10298.000000,3170.000000,1867.000000,-2625.000000,2095.000000,-73.000000,-189.000000,-53.000000,0.000000
2.770000,-3027.000000,9517.000000,391.000000,163.000000,-2905.000000,-608.000000,-84.000000,-192.000000,-46.000000,0.000000
2.780000,-2552.000000,8995.000000,-58.000000,-382.000000,-2052.000000,-1383.000000,-89.000000,-189.000000,-41.000000,0.000000
2.790000,-1144.000000,7730.000000,-135.000000,-275.000000,-1833.000000,-2108.000000,-89.000000,-189.000000,-41.000000,0.000000
2.800000,1462.000000,5876.000000,370.000000,-1856.000000,835.000000,-2470.000000,-84.000000,-190.000000,-38.000000,0.000000
2.810000,739.000000,4662.000000,255.000000,-2024.000000,1525.000000,-2795.000000,-90.000000,-192.000000,-40.000000,0.000000
2.820000,153.000000,4232.000000,154.000000,-1986.000000,1752.000000,-3049.000000,-90.000000,-192.000000,-40.000000,0.000000
2.830000,1345.000000,3797.000000,-844.000000,-1795.000000,1041.000000,-2872.000000,-81.000000,-193.000000,-43.000000,0.000000
2.840000,2572.000000,2628.000000,-1648.000000,-1455.000000,587.000000,-2253.000000,-61.000000,-197.000000,-47.000000,0.000000
2.850000,5504.000000,-1013.000000,-3081.000000,-963.000000,1321.000000,-480.000000,-59.000000,-199.000000,-55.000000,0.000000
2.860000,4220.000000,-2979.000000,-3740.000000,-253.000000,1683.000000,22.000000,-59.000000,-199.000000,-55.000000,0.000000
2.870000,1801.000000,-3320.000000,-2577.000000,616.000000,2138.000000,184.000000,-53.000000,-197.000000,-61.000000,0.000000
2.880000,-968.000000,-2252.000000,-633.000000,875.000000,1682.000000,555.000000,-53.000000,-197.000000,-61.000000,0.000000
2.890000,-30801.000000,29687.000000,-18948.000000,-22781.000000,10499.000000,8193.000000,-13051.000000,15871.000000,-15361.000000,0.000000
2.900000,-2645.000000,5045.000000,1117.000000,-366.000000,-2143.000000,2349.000000,-51.000000,-195.000000,-61.000000,0.000000
2.910000,691.000000,5125.000000,3282.000000,-276.000000,-4253.000000,3696.000000,-50.000000,-194.000000,-54.000000,0.000000
2.920000,1418.000000,3402.000000,4494.000000,250.000000,-3349.000000,3616.000000,-50.000000,-194.000000,-54.000000,0.000000
2.930000,954.000000,1218.000000,4533.000000,1159.000000,-1475.000000,3101.000000,-66.000000,-194.000000,-54.000000,0.000000
2.940000,-1297.000000,4709.000000,4320.000000,2414.000000,581.000000,2232.000000,-76.000000,-190.000000,-46.000000,0.000000
2.950000,-982.000000,5444.000000,5213.000000,2501.000000,797.000000,1798.000000,-79.000000,-185.000000,-45.000000,0.000000
2.960000,-221.000000,6303.000000,5340.000000,2354.000000,949.000000,1379.000000,-79.000000,-185.000000,-45.000000,0.000000
2.970000,594.000000,9063.000000,934.000000,1558.000000,-703.000000,1373.000000,-86.000000,-186.000000,-36.000000,0.000000
2.980000,126.000000,7965.000000,-591.000000,731.000000,-985.000000,718.000000,-86.000000,-186.000000,-36.000000,0.000000
2.990000,-1075.000000,7634.000000,-396.000000,342.000000,-1279.000000,230.000000,-91.000000,-185.000000,-25.000000,0.000000
3.000000,-2765.000000,6750.000000,-608.000000,-288.000000,-1317.000000,-894.000000,-96.000000,-192.000000,-30.000000,0.000000
3.010000,-1572.000000,5816.000000,-201.000000,57.000000,-1490.000000,-1552.000000,-96.000000,-192.000000,-30.000000,0.000000
3.020000,-20.000000,5674.000000,240.000000,-457.000000,-755.000000,-1582.000000,-93.000000,-185.000000,-21.000000,0.000000
3.030000,44.000000,5279.000000,9.000000,-1287.000000,-430.000000,-1777.000000,-93.000000,-185.000000,-21.000000,0.000000
3.040000,-341.000000,4784.000000,103.000000,-1432.000000,-347.000000,-2088.000000,-89.000000,-195.000000,-23.000000,0.000000
3.050000,-204.000000,4742.000000,174.000000,-1620.000000,-229.000000,-2314.000000,-89.000000,-195.000000,-23.000000,0.000000
3.060000,233.000000,4889.000000,-39.000000,-1833.000000,-51.000000,-2439.000000,-84.000000,-196.000000,-34.000000,0.000000
3.070000,789.000000,4709.000000,-416.000000,-1847.000000,151.000000,-2477.000000,-84.000000,-196.000000,-34.000000,0.000000
3.080000,1639.000000,2630.000000,-518.000000,-1491.000000,1602.000000,-2049.000000,-73.000000,-199.000000,-39.000000,0.000000
3.090000,1510.000000,1908.000000,-429.000000,-1267.000000,2235.000000,-1807.000000,-73.000000,-199.000000,-39.000000,0.000000
3.100000,93.000000,1591.000000,468.000000,-1153.000000,2631.000000,-1368.000000,-68.000000,-200.000000,-42.000000,0.000000
3.110000,-1168.000000,1405.000000,856.000000,-1123.000000,2054.000000,-1080.000000,-60.000000,-194.000000,-52.000000,0.000000
3.120000,-17458.000000,-3848.000000,-1532.000000,-18683.000000,-16389.000000,-5627.000000,-15108.000000,16127.000000,-13057.000000,0.000000
3.130000,-1727.000000,2167.000000,2917.000000,-1427.000000,758.000000,-157.000000,-47.000000,-195.000000,-57.000000,0.000000
3.140000,-1297.000000,2294.000000,2067.000000,-1823.000000,67.000000,370.000000,-47.000000,-195.000000,-57.000000,0.000000
3.150000,-40.000000,913.000000,2111.000000,-1084.000000,835.000000,1185.000000,-47.000000,-195.000000,-65.000000,0.000000
3.160000,-1830.000000,2354.000000,1224.000000,607.000000,3118.000000,1369.000000,-51.000000,-189.000000,-65.000000,0.000000
3.170000,-23849.000000,9207.000000,17163.000000,9221.000000,25605.000000,12.000000,-12539.000000,16383.000000,-15361.000000,0.000000
3.180000,-1497.000000,7684.000000,924.000000,1129.000000,-5848.000000,-24.000000,-52.000000,-196.000000,-56.000000,0.000000
3.190000,-2908.000000,7664.000000,1192.000000,181.000000,-6825.000000,-1297.000000,-62.000000,-200.000000,-52.000000,0.000000
3.200000,-1948.000000,7517.000000,1019.000000,-132.000000,-6364.000000,-1787.000000,-67.000000,-201.000000,-41.000000,0.000000
3.210000,-481.000000,7775.000000,1375.000000,-698.000000,-5512.000000,-2204.000000,-67.000000,-201.000000,-41.000000,0.000000
3.220000,25571.000000,13828.000000,6428.000000,27396.000000,9468.000000,3823.000000,-16395.000000,14847.000000,-8705.000000,0.000000
3.230000,2583.000000,6769.000000,1234.000000,-1322.000000,-2104.000000,-2670.000000,-65.000000,-199.000000,-35.000000,0.000000
3.240000,2006.000000,5638.000000,766.000000,-2139.000000,269.000000,-2253.000000,-68.000000,-200.000000,-32.000000,0.000000
3.250000,1570.000000,4888.000000,472.000000,-2270.000000,768.000000,-2088.000000,-61.000000,-207.000000,-39.000000,0.000000
3.260000,-2254.000000,961.000000,-1804.000000,-61.000000,-207.000000,-39.000000,8366.000000,-5878.000000,2452.000000,0.000000
3.270000,3396.000000,1919.000000,-1376.000000,-1765.000000,1187.000000,-825.000000,-54.000000,-204.000000,-46.000000,0.000000
3.280000,3382.000000,674.000000,-2311.000000,-1435.000000,1360.000000,-298.000000,-41.000000,-201.000000,-51.000000,0.000000
3.290000,1576.000000,-1442.000000,-2283.000000,-472.000000,1521.000000,670.000000,-47.000000,-201.000000,-53.000000,0.000000
3.300000,136.000000,-2257.000000,-2165.000000,35.000000,970.000000,1106.000000,-47.000000,-201.000000,-53.000000,0.000000
3.310000,-1055.000000,-2689.000000,-1842.000000,525.000000,111.000000,1625.000000,-45.000000,-199.000000,-57.000000,0.000000
3.320000,-441.000000,1909.000000,803.000000,-81.000000,-3217.000000,3044.000000,-51.000000,-199.000000,-57.000000,0.000000
3.330000,-310.000000,3174.000000,2695.000000,648.000000,-3810.000000,3902.000000,-51.000000,-199.000000,-57.000000,0.000000
3.340000,-229.000000,2737.000000,3623.000000,1296.000000,-3546.000000,3616.000000,-57.000000,-193.000000,-51.000000,0.000000
3.350000,-998.000000,872.000000,4457.000000,1985.000000,-3227.000000,3540.000000,-57.000000,-193.000000,-51.000000,0.000000
3.360000,-988.000000,1493.000000,3992.000000,2315.000000,-3113.000000,3363.000000,-74.000000,-190.000000,-50.000000,0.000000
3.370000,-1407.000000,3637.000000,4229.000000,2546.000000,-2713.000000,2920.000000,-74.000000,-190.000000,-50.000000,0.000000
3.380000,-608.000000,5142.000000,4922.000000,2723.000000,-2506.000000,2000.000000,-91.000000,-187.000000,-35.000000,0.000000
3.390000,250.000000,6411.000000,4350.000000,2450.000000,-2731.000000,1902.000000,-96.000000,-194.000000,-26.000000,0.000000
3.400000,250.000000,6411.000000,4350.000000,2450.000000,-2731.000000,1902.000000,-96.000000,-194.000000,-26.000000,0.000000
3.410000,-41.000000,9599.000000,1337.000000,2171.000000,-2878.000000,1911.000000,-101.000000,-185.000000,-19.000000,0.000000
3.420000,186.000000,9827.000000,-728.000000,1719.000000,-2213.000000,1251.000000,-101.000000,-185.000000,-19.000000,0.000000
3.430000,-144.000000,9352.000000,-4.000000,23.000000,-729.000000,146.000000,-112.000000,-190.000000,-10.000000,0.000000
3.440000,-407.000000,7834.000000,-470.000000,-456.000000,176.000000,-495.000000,-112.000000,-182.000000,-2.000000,0.000000
3.450000,23320.000000,-29182.000000,15102.000000,-27644.000000,-28420.000000,19199.000000,-257.000000,26111.000000,2592.000000,0.000000
3.460000,1019.000000,4813.000000,631.000000,-1603.000000,3010.000000,-1849.000000,-109.000000,-189.000000,-3.000000,0.000000
3.470000,988.000000,4567.000000,572.000000,-1792.000000,3160.000000,-2152.000000,-109.000000,-189.000000,-3.000000,0.000000
3.480000,1149.000000,4547.000000,363.000000,-1982.000000,3195.000000,-2330.000000,-107.000000,-189.000000,-11.000000,0.000000
3.490000,1215.000000,3498.000000,-884.000000,-1845.000000,2713.000000,-2128.000000,-94.000000,-194.000000,-20.000000,0.000000
3.500000,408.000000,1597.000000,-1974.000000,-1228.000000,2656.000000,-1879.000000,-85.000000,-195.000000,-35.000000,0.000000
3.510000,2559.000000,12803.000000,17144.000000,-9988.000000,20233.000000,-18951.000000,15359.000000,-9729.000000,-26113.000000,0.000000
3.520000,-3244.000000,48.000000,1173.000000,-178.000000,-1499.000000,-91.000000,-62.000000,-196.000000,-44.000000,0.000000
3.530000,-217.000000,1804.000000,3249.000000,-624.000000,-999.000000,966.000000,-64.000000,-198.000000,-46.000000,0.000000
3.540000,-958.000000,1228.000000,3087.000000,133.000000,1319.000000,743.000000,-69.000000,-197.000000,-43.000000,0.000000
3.550000,-930.000000,1956.000000,2830.000000,570.000000,2071.000000,765.000000,-75.000000,-195.000000,-51.000000,0.000000
3.560000,-887.000000,3337.000000,2992.000000,1254.000000,2781.000000,543.000000,-69.000000,-193.000000,-49.000000,0.000000
3.570000,-448.000000,3879.000000,3031.000000,1492.000000,2972.000000,455.000000,-69.000000,-193.000000,-49.000000,0.000000
3.580000,514.000000,5454.000000,2362.000000,1596.000000,2371.000000,378.000000,-64.000000,-192.000000,-54.000000,0.000000
3.590000,688.000000,6323.000000,1546.000000,1583.000000,1800.000000,716.000000,-64.000000,-194.000000,-48.000000,0.000000
3.600000,-333.000000,7531.000000,1527.000000,597.000000,232.000000,425.000000,-62.000000,-198.000000,-48.000000,0.000000
3.610000,-1863.000000,6923.000000,1694.000000,45.000000,-1152.000000,-148.000000,-64.000000,-194.000000,-48.000000,0.000000
3.620000,-2214.000000,6798.000000,1745.000000,-271.000000,-1655.000000,-546.000000,-64.000000,-194.000000,-48.000000,0.000000
3.630000,-1779.000000,6549.000000,1564.000000,-566.000000,-2054.000000,-986.000000,-65.000000,-199.000000,-43.000000,0.000000
3.640000,-883.000000,6744.000000,1727.000000,-806.000000,-2046.000000,-1344.000000,-65.000000,-199.000000,-43.000000,0.000000
3.650000,65.000000,6301.000000,1257.000000,-926.000000,-1859.000000,-1752.000000,-67.000000,-197.000000,-41.000000,0.000000
3.660000,902.000000,6037.000000,1224.000000,-1276.000000,-1044.000000,-1883.000000,-67.000000,-197.000000,-41.000000,0.000000
3.670000,1087.000000,5023.000000,698.000000,-1927.000000,182.000000,-1995.000000,-62.000000,-202.000000,-46.000000,0.000000
3.680000,1037.000000,4572.000000,499.000000,-2009.000000,617.000000,-1986.000000,-59.000000,-199.000000,-49.000000,0.000000
3.690000,917.000000,4126.000000,-61.000000,-2002.000000,872.000000,-1940.000000,-59.000000,-199.000000,-49.000000,0.000000
3.700000,923.000000,3519.000000,-745.000000,-1747.000000,854.000000,-1815.000000,-49.000000,-201.000000,-53.000000,0.000000
3.710000,1271.000000,2685.000000,-1460.000000,-1471.000000,749.000000,-1499.000000,-49.000000,-201.000000,-53.000000,0.000000
3.720000,1891.000000,1384.000000,-2529.000000,-1189.000000,505.000000,-1064.000000,-51.000000,-197.000000,-57.000000,0.000000
3.730000,917.000000,-1069.000000,-3468.000000,-160.000000,-284.000000,17.000000,-41.000000,-195.000000,-63.000000,0.000000
3.740000,27129.000000,-5643.000000,-14079.000000,-27141.000000,-10495.000000,15871.000000,-15873.000000,-19969.000000,-224.000000,0.000000
3.750000,27129.000000,-5643.000000,-14079.000000,-27141.000000,-10495.000000,15871.000000,-15873.000000,-19969.000000,-224.000000,0.000000
3.760000,3826.000000,4008.000000,1208.000000,-3722.000000,2161.000000,-57.000000,-195.000000,-53.000000,2683.000000,0.000000
3.770000,-533.000000,2623.000000,3994.000000,1736.000000,-2424.000000,1682.000000,-71.000000,-195.000000,-49.000000,0.000000
3.780000,-785.000000,4674.000000,4455.000000,2147.000000,-1593.000000,1062.000000,-78.000000,-188.000000,-42.000000,0.000000
3.790000,3844.000000,-30973.000000,10752.000000,-23038.000000,15615.000000,-6401.000000,19455.000000,2592.000000,9789.000000,0.000000
3.800000,1946.000000,6691.000000,502.000000,316.000000,1417.000000,-88.000000,-92.000000,-202.000000,-18.000000,0.000000
3.810000,1082.000000,6375.000000,719.000000,-78.000000,2030.000000,-196.000000,-93.000000,-195.000000,-23.000000,0.000000
3.820000,588.000000,5495.000000,1350.000000,-94.000000,2383.000000,-725.000000,-91.000000,-201.000000,-29.000000,0.000000
3.830000,786.000000,5420.000000,1588.000000,-414.000000,2842.000000,-609.000000,-91.000000,-201.000000,-29.000000,0.000000
3.840000,229.000000,4900.000000,1501.000000,-1078.000000,2939.000000,-815.000000,-82.000000,-198.000000,-30.000000,0.000000
3.850000,-78.000000,4741.000000,1436.000000,-1371.000000,2888.000000,-821.000000,-78.000000,-200.000000,-36.000000,0.000000
3.860000,-132.000000,3887.000000,-739.000000,-1762.000000,2802.000000,-641.000000,-64.000000,-204.000000,-44.000000,0.000000
3.870000,21258.000000,975.000000,1368.000000,984.000000,-928.000000,-2030.000000,1461.000000,-45.000000,-193.000000,0.000000
3.880000,1477.000000,166.000000,1016.000000,-128.000000,-1160.000000,1371.000000,-45.000000,-193.000000,-67.000000,0.000000
3.890000,296.000000,959.000000,1421.000000,1186.000000,577.000000,1323.000000,-57.000000,-189.000000,-63.000000,0.000000
3.900000,-768.000000,1859.000000,2031.000000,1718.000000,745.000000,1301.000000,-64.000000,-188.000000,-66.000000,0.000000
3.910000,-1254.000000,2988.000000,3769.000000,2538.000000,96.000000,1127.000000,-64.000000,-184.000000,-66.000000,0.000000
3.920000,-969.000000,3645.000000,4901.000000,2560.000000,-266.000000,994.000000,-64.000000,-184.000000,-66.000000,0.000000
3.930000,-482.000000,4346.000000,5583.000000,2318.000000,-691.000000,864.000000,-65.000000,-183.000000,-55.000000,0.000000
3.940000,911.000000,5845.000000,1725.000000,-3133.000000,1792.000000,-1631.000000,-72.000000,-198.000000,-46.000000,0.000000
3.950000,965.000000,5025.000000,1410.000000,-3252.000000,2153.000000,-1783.000000,-77.000000,-197.000000,-55.000000,0.000000
3.960000,1340.000000,4038.000000,-52.000000,-3201.000000,2639.000000,-1890.000000,-58.000000,-186.000000,-68.000000,0.000000
3.970000,1921.000000,1947.000000,-1570.000000,-2771.000000,2709.000000,-1077.000000,-51.000000,-187.000000,-73.000000,0.000000
3.980000,-3168.000000,5677.000000,2263.000000,-970.000000,203.000000,2145.000000,-19.000000,-173.000000,-89.000000,0.000000
3.990000,-3242.000000,2605.000000,3607.000000,-351.000000,-274.000000,2660.000000,-19.000000,-171.000000,-87.000000,0.000000
4.000000,-675.000000,1070.000000,3755.000000,512.000000,-841.000000,2916.000000,-24.000000,-172.000000,-82.000000,0.000000
4.010000,-301.000000,2463.000000,3690.000000,1075.000000,-284.000000,2819.000000,-24.000000,-172.000000,-82.000000,0.000000
4.020000,-179.000000,3590.000000,3552.000000,1866.000000,897.000000,2058.000000,-27.000000,-169.000000,-91.000000,0.000000
4.030000,-807.000000,8495.000000,2238.000000,1369.000000,-1785.000000,2147.000000,-39.000000,-179.000000,-73.000000,0.000000
4.040000,1151.000000,5541.000000,1471.000000,-1888.000000,-1234.000000,-1351.000000,-68.000000,-182.000000,-64.000000,0.000000
4.050000,2629.000000,1958.000000,147.000000,-2114.000000,3802.000000,-529.000000,-69.000000,-177.000000,-73.000000,0.000000
4.060000,-4384.000000,2581.000000,-1556.000000,-776.000000,6018.000000,449.000000,40.000000,-156.000000,-82.000000,0.000000
4.070000,-6461.000000,8024.000000,1374.000000,1255.000000,-11839.000000,258.000000,40.000000,-170.000000,-66.000000,0.000000
4.080000,-3848.000000,-31457.000000,13308.000000,-29699.000000,25548.000000,-3598.000000,20479.000000,-19969.000000,10239.000000,0.000000
4.090000,3478.000000,8521.000000,2664.000000,-1707.000000,-8175.000000,-3909.000000,-38.000000,-172.000000,-82.000000,0.000000
4.100000,3260.000000,6344.000000,4085.000000,-3217.000000,-2314.000000,-3021.000000,-51.000000,-177.000000,-75.000000,0.000000
4.110000,-1592.000000,3933.000000,3275.000000,-4029.000000,443.000000,-2606.000000,-47.000000,-167.000000,-89.000000,0.000000
4.120000,-2484.000000,3241.000000,2564.000000,-4336.000000,-436.000000,-2446.000000,-41.000000,-155.000000,-99.000000,0.000000
4.130000,-585.000000,1983.000000,2064.000000,-4638.000000,-384.000000,-2416.000000,-37.000000,-133.000000,-109.000000,0.000000
4.140000,-620.000000,1700.000000,1400.000000,-4610.000000,16.000000,-2317.000000,-37.000000,-123.000000,-121.000000,0.000000
4.150000,389.000000,596.000000,-281.000000,-3753.000000,1979.000000,-2050.000000,-32.000000,-92.000000,-124.000000,0.000000
4.160000,525.000000,363.000000,-629.000000,-3364.000000,2677.000000,-2016.000000,-32.000000,-92.000000,-124.000000,0.000000
4.170000,-413.000000,-43.000000,-241.000000,-1934.000000,3172.000000,-2003.000000,-10.000000,-74.000000,-130.000000,0.000000
4.180000,-593.000000,-243.000000,51.000000,-1527.000000,2759.000000,-1649.000000,-2.000000,-66.000000,-124.000000,0.000000
4.190000,-136.000000,-318.000000,750.000000,-659.000000,1495.000000,-837.000000,4.000000,-58.000000,-122.000000,0.000000
4.200000,195.000000,-574.000000,535.000000,-413.000000,1227.000000,-482.000000,12.000000,-52.000000,-122.000000,0.000000
4.210000,-52.000000,-122.000000,8361.000000,-14070.000000,1888.000000,-1516.000000,-375.000000,220.000000,1065.000000,0.000000
4.220000,18122.000000,-22518.000000,32759.000000,-29699.000000,-24062.000000,-28925.000000,4611.000000,-14336.000000,-31489.000000,0.000000
4.230000,3794.000000,-2908.000000,-811.000000,1688.000000,1240.000000,2064.000000,21.000000,-53.000000,-121.000000,0.000000
4.240000,2238.000000,1605.000000,2570.000000,22.000000,-56.000000,-120.000000,8313.000000,-12790.000000,3291.000000,0.000000
4.250000,3074.000000,-2316.000000,-380.000000,3397.000000,2436.000000,3757.000000,27.000000,-65.000000,-125.000000,0.000000
4.260000,2521.000000,-942.000000,140.000000,4761.000000,2845.000000,5462.000000,38.000000,-80.000000,-118.000000,0.000000
4.270000,-24877.000000,20231.000000,-8960.000000,10752.000000,-7660.000000,-15351.000000,11799.000000,-26112.000000,-29441.000000,0.000000
4.280000,-1242.000000,9158.000000,-130.000000,6382.000000,-395.000000,8706.000000,40.000000,-152.000000,-96.000000,0.000000
4.290000,2988.000000,2558.000000,493.000000,-3198.000000,-3864.000000,298.000000,-119.000000,-183.000000,25.000000,0.000000
4.300000,8089.000000,1803.000000,-533.000000,-2122.000000,1308.000000,-2099.000000,-119.000000,-183.000000,19.000000,0.000000
4.310000,7699.000000,2407.000000,-1363.000000,-1356.000000,6885.000000,-1667.000000,-110.000000,-190.000000,14.000000,0.000000
4.320000,944.000000,4840.000000,-590.000000,-1060.000000,13645.000000,-3878.000000,-100.000000,-194.000000,-10.000000,0.000000
4.330000,-3785.000000,5743.000000,-1215.000000,-1727.000000,13910.000000,-5578.000000,-100.000000,-194.000000,-10.000000,0.000000
4.340000,-10901.000000,2893.000000,-4049.000000,-567.000000,223.000000,398.000000,-49.000000,-203.000000,-49.000000,0.000000
4.350000,-2775.000000,-778.000000,1155.000000,133.000000,-3005.000000,1108.000000,-49.000000,-203.000000,-49.000000,0.000000
4.360000,1340.000000,-113.000000,1387.000000,300.000000,-4415.000000,3908.000000,-47.000000,-201.000000,-53.000000,0.000000
4.370000,-30729.000000,-5126.000000,14854.000000,-4082.000000,6665.000000,8685.000000,-17652.000000,15359.000000,-10241.000000,0.000000
4.380000,-1270.000000,-142.000000,5078.000000,-135.000000,2685.000000,-9379.000000,2004.000000,-101.000000,-193.000000,0.000000
4.390000,-11615.000000,2955.000000,2309.000000,-1487.000000,-3853.000000,-173.000000,-84.000000,-188.000000,-48.000000,0.000000
4.400000,4644.000000,6222.000000,1041.000000,388.000000,5981.000000,-89.000000,-111.000000,-191.000000,23.000000,0.000000
4.410000,2973.000000,4558.000000,-932.000000,-564.000000,8776.000000,-300.000000,-111.000000,-191.000000,9.000000,0.000000
4.420000,-3975.000000,560.000000,-6988.000000,118.000000,5633.000000,-1160.000000,-94.000000,-192.000000,-36.000000,0.000000
4.430000,23549.000000,23566.000000,24599.000000,5894.000000,1286.000000,11753.000000,-28925.000000,17919.000000,2047.000000,0.000000
4.440000,-21747.000000,17892.000000,20524.000000,17179.000000,-1025.000000,-15907.000000,-19193.000000,16383.000000,-12801.000000,0.000000
4.450000,4017.000000,3024.000000,2113.000000,323.000000,-12010.000000,3185.000000,-89.000000,-185.000000,-37.000000,0.000000
4.460000,4265.000000,3386.000000,1652.000000,997.000000,-10126.000000,2004.000000,-89.000000,-185.000000,-37.000000,0.000000
4.470000,2920.000000,4729.000000,2492.000000,1189.000000,-7632.000000,1056.000000,-109.000000,-187.000000,-23.000000,0.000000
4.480000,1754.000000,5045.000000,2658.000000,913.000000,-5470.000000,706.000000,-109.000000,-187.000000,-23.000000,0.000000
4.490000,985.000000,4108.000000,1438.000000,509.000000,-3298.000000,134.000000,-113.000000,-179.000000,-5.000000,0.000000
4.500000,2131.000000,3398.000000,633.000000,302.000000,-1328.000000,-259.000000,-113.000000,-179.000000,-5.000000,0.000000
4.510000,2686.000000,3331.000000,78.000000,374.000000,611.000000,-306.000000,-115.000000,-177.000000,9.000000,0.000000
4.520000,2477.000000,3995.000000,-590.000000,545.000000,2326.000000,-592.000000,-115.000000,-177.000000,9.000000,0.000000
4.530000,3797.000000,4930.000000,-988.000000,935.000000,4837.000000,-830.000000,-119.000000,-183.000000,11.000000,0.000000
4.540000,4233.000000,4964.000000,-789.000000,706.000000,5972.000000,-781.000000,-122.000000,-188.000000,4.000000,0.000000
4.550000,2869.000000,4759.000000,-890.000000,464.000000,6728.000000,-806.000000,-122.000000,-188.000000,4.000000,0.000000
4.560000,1317.000000,4379.000000,-1026.000000,365.000000,6723.000000,-749.000000,-113.000000,-187.000000,-9.000000,0.000000
4.570000,-1728.000000,3407.000000,-1524.000000,187.000000,4767.000000,-698.000000,-104.000000,-192.000000,-22.000000,0.000000
4.580000,-2705.000000,3003.000000,-1161.000000,48.000000,3509.000000,-668.000000,-104.000000,-192.000000,-22.000000,0.000000
4.590000,-3207.000000,2581.000000,-716.000000,40.000000,2116.000000,-696.000000,-98.000000,-188.000000,-24.000000,0.000000
4.600000,-3012.000000,2640.000000,410.000000,-29.000000,597.000000,-624.000000,-98.000000,-188.000000,-24.000000,0.000000
4.610000,-2244.000000,2903.000000,1680.000000,-267.000000,-935.000000,-421.000000,-90.000000,-188.000000,-38.000000,0.000000
4.620000,2819.000000,2880.000000,-5596.000000,420.000000,7675.000000,-3388.000000,-95.000000,-191.000000,-31.000000,1.000000
4.630000,2997.000000,1165.000000,-5448.000000,1235.000000,8033.000000,-3301.000000,21.000000,-211.000000,11.000000,1.000000
4.640000,2040.000000,1065.000000,-3959.000000,1374.000000,8283.000000,-2400.000000,21.000000,-211.000000,11.000000,1.000000
4.650000,2975.000000,1025.000000,-2080.000000,831.000000,7790.000000,-1640.000000,30.000000,-208.000000,28.000000,1.000000
4.660000,4161.000000,620.000000,83.000000,92.000000,6879.000000,-1036.000000,30.000000,-208.000000,28.000000,1.000000
4.670000,4766.000000,10.000000,1542.000000,-625.000000,7120.000000,-447.000000,37.000000,-205.000000,41.000000,1.000000
4.680000,1668.000000,199.000000,430.000000,-858.000000,7204.000000,116.000000,37.000000,-205.000000,41.000000,1.000000
4.690000,-2360.000000,1134.000000,756.000000,-829.000000,5754.000000,245.000000,29.000000,-201.000000,45.000000,1.000000
4.700000,-4544.000000,3026.000000,2034.000000,-1982.000000,4006.000000,323.000000,29.000000,-201.000000,45.000000,1.000000
4.710000,-4735.000000,2482.000000,1121.000000,-3405.000000,1537.000000,178.000000,29.000000,-207.000000,51.000000,1.000000
4.720000,-3528.000000,1414.000000,64.000000,-4131.000000,-1013.000000,477.000000,29.000000,-207.000000,51.000000,1.000000
4.730000,-1260.000000,984.000000,-885.000000,-4268.000000,-2950.000000,962.000000,23.000000,-205.000000,43.000000,1.000000
4.740000,225.000000,628.000000,-1889.000000,-4317.000000,-4366.000000,1486.000000,23.000000,-205.000000,43.000000,1.000000
4.750000,841.000000,510.000000,-2699.000000,-4450.000000,-4973.000000,2242.000000,25.000000,-211.000000,25.000000,1.000000
4.760000,533.000000,498.000000,-3888.000000,-4128.000000,-5116.000000,3002.000000,25.000000,-211.000000,25.000000,1.000000
4.770000,-360.000000,1102.000000,-4837.000000,-3241.000000,-5113.000000,3527.000000,21.000000,-215.000000,9.000000,1.000000
4.780000,-1155.000000,2309.000000,-5267.000000,-2332.000000,-5527.000000,3883.000000,21.000000,-215.000000,9.000000,1.000000
4.790000,-2354.000000,4133.000000,-3184.000000,-2035.000000,-6668.000000,4054.000000,14.000000,-216.000000,-2.000000,1.000000
4.800000,-3202.000000,7043.000000,-173.000000,-2555.000000,-8376.000000,4344.000000,14.000000,-216.000000,-2.000000,1.000000
4.810000,-2181.000000,9047.000000,2014.000000,-2756.000000,-8291.000000,4981.000000,-7.000000,-215.000000,-11.000000,1.000000
4.820000,866.000000,10124.000000,2221.000000,-2646.000000,-5841.000000,5540.000000,-7.000000,-215.000000,-11.000000,1.000000
4.830000,2426.000000,11129.000000,2480.000000,-3279.000000,-4334.000000,4864.000000,-26.000000,-208.000000,-14.000000,1.000000
4.840000,4472.000000,10226.000000,2538.000000,-2719.000000,-305.000000,2976.000000,-26.000000,-208.000000,-14.000000,1.000000
4.850000,5590.000000,7963.000000,633.000000,-2032.000000,6094.000000,1143.000000,-45.000000,-205.000000,-23.000000,1.000000
4.860000,3386.000000,4558.000000,-918.000000,-549.000000,9509.000000,-1282.000000,-45.000000,-205.000000,-23.000000,1.000000
4.870000,-1024.000000,3405.000000,-1225.000000,279.000000,9605.000000,-3046.000000,-37.000000,-209.000000,-31.000000,1.000000
4.880000,-3410.000000,3344.000000,1379.000000,914.000000,8257.000000,-3793.000000,-37.000000,-209.000000,-31.000000,1.000000
4.890000,-3836.000000,3362.000000,2610.000000,1342.000000,5051.000000,-4342.000000,-26.000000,-212.000000,-34.000000,1.000000
4.900000,-3442.000000,4244.000000,4142.000000,1317.000000,2305.000000,-4785.000000,-26.000000,-212.000000,-34.000000,1.000000
4.910000,-2195.000000,4442.000000,3989.000000,1132.000000,-361.000000,-5163.000000,-4.000000,-204.000000,-38.000000,1.000000
4.920000,-18.000000,5594.000000,3148.000000,852.000000,-2402.000000,-5195.000000,-4.000000,-204.000000,-38.000000,1.000000
4.930000,697.000000,6961.000000,1404.000000,748.000000,-3699.000000,-4904.000000,14.000000,-206.000000,-28.000000,1.000000
4.940000,-301.000000,7410.000000,-1613.000000,600.000000,-4087.000000,-5278.000000,14.000000,-206.000000,-28.000000,1.000000
4.950000,-2256.000000,7377.000000,-3158.000000,913.000000,-4087.000000,-5701.000000,25.000000,-199.000000,-25.000000,1.000000
4.960000,-2360.000000,9245.000000,-3822.000000,1175.000000,-4676.000000,-5423.000000,25.000000,-199.000000,-25.000000,1.000000
4.970000,-915.000000,9830.000000,-3636.000000,316.000000,-5795.000000,-4941.000000,34.000000,-198.000000,-38.000000,1.000000
4.980000,-221.000000,9848.000000,-2370.000000,-629.000000,-5600.000000,-4819.000000,34.000000,-198.000000,-38.000000,1.000000
4.990000,1941.000000,8068.000000,-1987.000000,-1178.000000,-5402.000000,-4283.000000,49.000000,-191.000000,-41.000000,1.000000
5.000000,4461.000000,5558.000000,-62.000000,-1543.000000,-3482.000000,-2287.000000,50.000000,-186.000000,-52.000000,1.000000
5.010000,4872.000000,5156.000000,1305.000000,-1633.000000,-1563.000000,-2191.000000,50.000000,-186.000000,-52.000000,1.000000
5.020000,4880.000000,4404.000000,2784.000000,-1292.000000,3891.000000,-2338.000000,50.000000,-176.000000,-60.000000,1.000000
5.030000,6416.000000,3512.000000,3156.000000,-1339.000000,10775.000000,-2212.000000,51.000000,-171.000000,-61.000000,1.000000
5.040000,3989.000000,2861.000000,186.000000,-1138.000000,15067.000000,-2687.000000,64.000000,-162.000000,-56.000000,1.000000
5.050000,2042.000000,2138.000000,-1304.000000,-1223.000000,15596.000000,-2609.000000,91.000000,-161.000000,-29.000000,1.000000
5.060000,2039.000000,1722.000000,-1021.000000,-1310.000000,14390.000000,-2420.000000,107.000000,-143.000000,7.000000,1.000000
5.070000,2691.000000,893.000000,891.000000,-2269.000000,11057.000000,-1577.000000,109.000000,-131.000000,39.000000,1.000000
5.080000,3340.000000,217.000000,1158.000000,-2888.000000,9802.000000,-861.000000,109.000000,-131.000000,39.000000,1.000000
5.090000,2791.000000,123.000000,138.000000,-3058.000000,8414.000000,-267.000000,101.000000,-127.000000,69.000000,1.000000
5.100000,2262.000000,586.000000,-1194.000000,-2912.000000,7649.000000,-419.000000,101.000000,-127.000000,69.000000,1.000000
5.110000,746.000000,1436.000000,-2447.000000,-2584.000000,6461.000000,-423.000000,95.000000,-131.000000,77.000000,1.000000
5.120000,-694.000000,2126.000000,-2442.000000,-2497.000000,5385.000000,-169.000000,95.000000,-131.000000,77.000000,1.000000
5.130000,-2084.000000,3176.000000,-2549.000000,-3084.000000,4768.000000,466.000000,85.000000,-137.000000,97.000000,1.000000
5.140000,-3543.000000,3415.000000,-3033.000000,-3902.000000,3414.000000,1209.000000,85.000000,-137.000000,97.000000,1.000000
5.150000,-3722.000000,3050.000000,-3284.000000,-4338.000000,1758.000000,1893.000000,76.000000,-144.000000,100.000000,1.000000
5.160000,-3825.000000,3143.000000,-3771.000000,-4216.000000,-27.000000,2354.000000,76.000000,-144.000000,100.000000,1.000000
5.170000,-4698.000000,3577.000000,-4626.000000,-3834.000000,-1802.000000,2603.000000,68.000000,-154.000000,94.000000,1.000000
5.180000,-5995.000000,3918.000000,-5703.000000,-3271.000000,-3575.000000,2863.000000,68.000000,-154.000000,94.000000,1.000000
5.190000,-6845.000000,4023.000000,-7384.000000,-2580.000000,-6268.000000,3147.000000,69.000000,-171.000000,85.000000,1.000000
5.200000,-7015.000000,3818.000000,-7994.000000,-1870.000000,-8919.000000,3370.000000,69.000000,-171.000000,85.000000,1.000000
5.210000,-7065.000000,4292.000000,-7616.000000,-1434.000000,-12081.000000,3723.000000,68.000000,-180.000000,72.000000,1.000000
5.220000,-6450.000000,5477.000000,-4717.000000,-1843.000000,-16328.000000,4733.000000,68.000000,-180.000000,72.000000,1.000000
5.230000,-5736.000000,6310.000000,-3474.000000,-1804.000000,-19073.000000,5941.000000,73.000000,-185.000000,45.000000,1.000000
5.240000,-1841.000000,6337.000000,-5424.000000,-1294.000000,-21915.000000,6366.000000,73.000000,-185.000000,45.000000,1.000000
5.250000,2757.000000,6882.000000,-5399.000000,-992.000000,-24497.000000,6255.000000,70.000000,-198.000000,10.000000,1.000000
5.260000,3539.000000,7446.000000,-6720.000000,-948.000000,-26404.000000,4941.000000,70.000000,-198.000000,10.000000,1.000000
5.270000,2466.000000,7729.000000,-5566.000000,-1434.000000,-26629.000000,2742.000000,30.000000,-200.000000,-20.000000,1.000000
5.280000,2576.000000,5639.000000,-8114.000000,-919.000000,-26453.000000,546.000000,30.000000,-200.000000,-20.000000,1.000000
5.290000,1765.000000,5439.000000,-4964.000000,-300.000000,-21964.000000,-814.000000,-8.000000,-202.000000,-50.000000,1.000000
5.300000,5996.000000,5147.000000,-3678.000000,-193.000000,-16759.000000,-1392.000000,-8.000000,-202.000000,-50.000000,1.000000
5.310000,8362.000000,7569.000000,-610.000000,-1468.000000,-11076.000000,-1379.000000,-44.000000,-204.000000,-46.000000,1.000000
5.320000,7558.000000,8150.000000,-338.000000,-3770.000000,-5781.000000,-1257.000000,-44.000000,-204.000000,-46.000000,1.000000
5.330000,7030.000000,6371.000000,-1032.000000,-4233.000000,-2609.000000,-1894.000000,-51.000000,-199.000000,-41.000000,1.000000
5.340000,5468.000000,5839.000000,-636.000000,-4248.000000,621.000000,-1899.000000,-51.000000,-199.000000,-41.000000,1.000000
5.350000,5633.000000,5891.000000,-2041.000000,-4213.000000,3663.000000,-2294.000000,-57.000000,-199.000000,-51.000000,1.000000
5.360000,4785.000000,5223.000000,-3111.000000,-3422.000000,5314.000000,-2798.000000,-57.000000,-199.000000,-51.000000,1.000000
5.370000,3377.000000,4326.000000,-3217.000000,-2342.000000,6899.000000,-2988.000000,-41.000000,-195.000000,-59.000000,1.000000
5.380000,1723.000000,4171.000000,-2519.000000,-2101.000000,8002.000000,-3281.000000,-41.000000,-195.000000,-59.000000,1.000000
5.390000,1237.000000,4172.000000,-1079.000000,-2443.000000,9314.000000,-3712.000000,-23.000000,-189.000000,-73.000000,1.000000
5.400000,1016.000000,3662.000000,1019.000000,-2915.000000,10954.000000,-3905.000000,-23.000000,-189.000000,-73.000000,1.000000
5.410000,576.000000,1638.000000,1239.000000,-2865.000000,11813.000000,-4263.000000,-1.000000,-177.000000,-73.000000,1.000000
5.420000,-4154.000000,-601.000000,1281.000000,-1652.000000,7952.000000,-3879.000000,-1.000000,-177.000000,-73.000000,1.000000
5.430000,-8704.000000,545.000000,2472.000000,-1408.000000,4162.000000,-3249.000000,35.000000,-175.000000,-67.000000,1.000000
5.440000,-10056.000000,2233.000000,457.000000,-1409.000000,-345.000000,-2400.000000,35.000000,-175.000000,-67.000000,1.000000
5.450000,-6437.000000,1575.000000,-276.000000,-1031.000000,-3812.000000,-1245.000000,51.000000,-169.000000,-71.000000,1.000000
5.460000,-1494.000000,636.000000,722.000000,-961.000000,-5468.000000,-371.000000,51.000000,-169.000000,-71.000000,1.000000
5.470000,2062.000000,-121.000000,-47.000000,-894.000000,-5757.000000,-1.000000,48.000000,-158.000000,-72.000000,1.000000
5.480000,4339.000000,-1065.000000,-1118.000000,-683.000000,-4996.000000,108.000000,48.000000,-158.000000,-72.000000,1.000000
5.490000,4983.000000,-1734.000000,-1334.000000,-256.000000,-3534.000000,37.000000,43.000000,-155.000000,-83.000000,1.000000
5.500000,5042.000000,-2125.000000,-934.000000,442.000000,-1800.000000,3.000000,43.000000,-155.000000,-83.000000,1.000000
5.510000,4479.000000,-1320.000000,-1044.000000,1332.000000,-260.000000,173.000000,33.000000,-161.000000,-85.000000,1.000000
5.520000,3578.000000,-82.000000,-1247.000000,2120.000000,780.000000,323.000000,33.000000,-161.000000,-85.000000,1.000000
5.530000,2820.000000,809.000000,-1408.000000,2841.000000,1557.000000,553.000000,23.000000,-155.000000,-75.000000,1.000000
5.540000,2989.000000,1660.000000,-806.000000,3342.000000,3290.000000,1439.000000,27.000000,-163.000000,-79.000000,1.000000
5.550000,-13248.000000,798.000000,3677.000000,4448.000000,2942.000000,26.000000,-172.000000,-68.000000,8292.000000,1.000000
5.560000,348.000000,6499.000000,1561.000000,2683.000000,4550.000000,3553.000000,30.000000,-178.000000,-62.000000,1.000000
5.570000,-2962.000000,9109.000000,1831.000000,464.000000,3945.000000,3851.000000,35.000000,-187.000000,-43.000000,1.000000
5.580000,-3846.000000,9257.000000,1593.000000,-979.000000,3283.000000,3698.000000,26.000000,-192.000000,-44.000000,1.000000
5.590000,-5778.000000,2545.000000,7712.000000,17666.000000,6648.000000,24586.000000,6669.000000,16384.000000,-11009.000000,1.000000
5.600000,-3583.000000,6868.000000,-736.000000,-2391.000000,1772.000000,3023.000000,23.000000,-193.000000,-41.000000,1.000000
5.610000,-3246.000000,5703.000000,-2449.000000,-2282.000000,1051.000000,2801.000000,23.000000,-193.000000,-41.000000,1.000000
5.620000,-2947.000000,4837.000000,-4616.000000,-1924.000000,302.000000,2679.000000,16.000000,-200.000000,-44.000000,1.000000
5.630000,-4009.000000,3967.000000,-6871.000000,-1150.000000,-2448.000000,2147.000000,6.000000,-192.000000,-46.000000,1.000000
5.640000,-4325.000000,5229.000000,-3521.000000,-754.000000,-3778.000000,1937.000000,6.000000,-192.000000,-46.000000,1.000000
5.650000,-3771.000000,8076.000000,1350.000000,-264.000000,-4378.000000,1682.000000,-2.000000,-186.000000,-62.000000,1.000000
5.660000,-1403.000000,9383.000000,7538.000000,-584.000000,-4632.000000,1914.000000,-2.000000,-186.000000,-62.000000,1.000000
5.670000,1612.000000,6869.000000,3590.000000,483.000000,-5094.000000,-569.000000,-10.000000,-190.000000,-58.000000,1.000000
5.680000,-19447.000000,1306.000000,2828.000000,-24319.000000,-272.000000,-6150.000000,17407.000000,-14337.000000,-20737.000000,1.000000
5.690000,7992.000000,4607.000000,-159.000000,1263.000000,3835.000000,-2679.000000,-34.000000,-188.000000,-56.000000,1.000000
5.700000,7877.000000,4264.000000,-1434.000000,1361.000000,6273.000000,-2861.000000,-24.000000,-186.000000,-52.000000,1.000000
5.710000,4667.000000,3322.000000,-2716.000000,2259.000000,8498.000000,-2684.000000,-4.000000,-190.000000,-52.000000,1.000000
5.720000,2750.000000,3910.000000,-2635.000000,2014.000000,8683.000000,-2333.000000,-4.000000,-190.000000,-52.000000,1.000000
5.730000,-25983.000000,6401.000000,25104.000000,-4618.000000,-27901.000000,-26338.000000,3062.000000,16640.000000,-10753.000000,1.000000
5.740000,-2512.000000,3391.000000,-1558.000000,-452.000000,7017.000000,-1783.000000,11.000000,-191.000000,-43.000000,1.000000
5.750000,-4099.000000,1638.000000,627.000000,-1607.000000,2463.000000,45.000000,23.000000,-187.000000,-29.000000,1.000000
5.760000,-4463.000000,2156.000000,-439.000000,-874.000000,-193.000000,-164.000000,35.000000,-183.000000,-29.000000,1.000000
5.770000,-3066.000000,1126.000000,-4381.000000,-952.000000,-5429.000000,298.000000,33.000000,-185.000000,-33.000000,1.000000
5.780000,1621.000000,-525.000000,-7693.000000,421.000000,-11924.000000,2571.000000,30.000000,-186.000000,-36.000000,1.000000
5.790000,6627.000000,5768.000000,1920.000000,970.000000,-14648.000000,4146.000000,-19.000000,-187.000000,-49.000000,1.000000
5.800000,2856.000000,7257.000000,4965.000000,330.000000,4309.000000,246.000000,-61.000000,-181.000000,-35.000000,1.000000
5.810000,2238.000000,6439.000000,2542.000000,188.000000,7689.000000,-104.000000,-61.000000,-181.000000,-35.000000,1.000000
5.820000,1306.000000,6068.000000,-1175.000000,863.000000,9755.000000,-757.000000,-58.000000,-180.000000,-44.000000,1.000000
5.830000,2019.000000,4565.000000,-6305.000000,1596.000000,9920.000000,-2289.000000,-45.000000,-177.000000,-47.000000,1.000000
5.840000,638.000000,4166.000000,-3877.000000,902.000000,7867.000000,-2096.000000,-23.000000,-179.000000,-43.000000,1.000000
5.850000,537.000000,3796.000000,-2127.000000,602.000000,6671.000000,-1700.000000,-23.000000,-179.000000,-43.000000,1.000000
5.860000,30986.000000,25870.000000,28163.000000,23296.000000,15897.000000,-1286.000000,20223.000000,-9473.000000,-17153.000000,1.000000
5.870000,-1339.000000,2882.000000,78.000000,-2564.000000,4965.000000,38.000000,20.000000,-180.000000,-32.000000,1.000000
5.880000,-2982.000000,910.000000,-5098.000000,-2770.000000,-1943.000000,1049.000000,23.000000,-175.000000,-35.000000,1.000000
5.890000,-2533.000000,192.000000,-7281.000000,-2278.000000,-4171.000000,2122.000000,23.000000,-175.000000,-35.000000,1.000000
5.900000,-2734.000000,3638.000000,2306.000000,-543.000000,-12295.000000,2993.000000,4.000000,-170.000000,-44.000000,1.000000
5.910000,2188.000000,4935.000000,938.000000,-882.000000,-3927.000000,-821.000000,-38.000000,-164.000000,-50.000000,1.000000
5.920000,6021.000000,3941.000000,793.000000,-13.000000,2890.000000,-2096.000000,-46.000000,-164.000000,-58.000000,1.000000
5.930000,7784.000000,2762.000000,-2897.000000,1463.000000,9209.000000,-3155.000000,-42.000000,-166.000000,-50.000000,1.000000
5.940000,4241.000000,3335.000000,-3385.000000,2082.000000,11471.000000,-2951.000000,-26.000000,-164.000000,-50.000000,1.000000
5.950000,826.000000,4308.000000,-3039.000000,1512.000000,11419.000000,-2874.000000,-8.000000,-168.000000,-44.000000,1.000000
5.960000,-5228.000000,4009.000000,-2143.000000,-1271.000000,7790.000000,-1420.000000,14.000000,-164.000000,-40.000000,1.000000
5.970000,-5070.000000,2394.000000,-1743.000000,-1970.000000,4831.000000,-760.000000,14.000000,-164.000000,-40.000000,1.000000
5.980000,-5070.000000,2394.000000,-1743.000000,-1970.000000,4831.000000,-760.000000,14.000000,-164.000000,-40.000000,1.000000
5.990000,-7844.000000,603.000000,-4652.000000,-1219.000000,-3450.000000,-795.000000,33.000000,-165.000000,-33.000000,1.000000
6.000000,-2139.000000,-904.000000,-9476.000000,365.000000,-13153.000000,1726.000000,36.000000,-164.000000,-34.000000,1.000000
6.010000,5835.000000,2980.000000,-4476.000000,447.000000,-21046.000000,3794.000000,27.000000,-157.000000,-43.000000,1.000000
6.020000,15959.000000,7974.000000,7048.000000,-1571.000000,-11363.000000,4119.000000,-5.000000,-163.000000,-55.000000,1.000000
6.030000,15204.000000,7791.000000,6385.000000,201.000000,-5798.000000,2146.000000,-42.000000,-158.000000,-54.000000,1.000000
6.040000,2646.000000,6856.000000,4898.000000,550.000000,4916.000000,-1155.000000,-61.000000,-155.000000,-57.000000,1.000000
6.050000,3303.000000,6315.000000,1687.000000,1245.000000,8240.000000,-1549.000000,-61.000000,-155.000000,-57.000000,1.000000
6.060000,6042.000000,4443.000000,-2092.000000,1750.000000,11058.000000,-2291.000000,-58.000000,-160.000000,-54.000000,1.000000
6.070000,5120.000000,4102.000000,-5299.000000,2247.000000,13529.000000,-2676.000000,-32.000000,-168.000000,-52.000000,1.000000
6.080000,-1410.000000,3884.000000,-6801.000000,2083.000000,13736.000000,-2965.000000,-5.000000,-163.000000,-53.000000,1.000000
6.090000,-6923.000000,4062.000000,-6485.000000,471.000000,11749.000000,-2781.000000,-5.000000,-163.000000,-53.000000,1.000000
6.100000,-7109.000000,-1249.000000,-5561.000000,-823.000000,1593.000000,-814.000000,22.000000,-168.000000,-42.000000,1.000000
6.110000,19689.000000,9720.000000,21746.000000,9988.000000,28909.000000,8960.000000,23296.000000,-8193.000000,2047.000000,1.000000
6.120000,-2606.000000,2281.000000,650.000000,35.000000,-16950.000000,1481.000000,24.000000,-168.000000,-36.000000,1.000000
6.130000,4155.000000,7720.000000,7393.000000,-606.000000,-15627.000000,3958.000000,24.000000,-168.000000,-36.000000,1.000000
6.140000,16864.000000,2508.000000,9549.000000,-1294.000000,-4554.000000,1942.000000,5.000000,-171.000000,-49.000000,1.000000
6.150000,1898.000000,3399.000000,5594.000000,581.000000,4671.000000,-535.000000,-23.000000,-169.000000,-59.000000,1.000000
6.160000,623.000000,5015.000000,5759.000000,711.000000,6469.000000,-1138.000000,-18.000000,-170.000000,-58.000000,1.000000
6.170000,4205.000000,5723.000000,4361.000000,655.000000,8062.000000,-1291.000000,-18.000000,-170.000000,-58.000000,1.000000
6.180000,19993.000000,22545.000000,-15362.000000,-1022.000000,18721.000000,-3077.000000,23039.000000,-13825.000000,767.000000,1.000000
6.190000,766.000000,5145.000000,-2512.000000,1792.000000,7374.000000,-1917.000000,1.000000,-169.000000,-53.000000,1.000000
6.200000,-295.000000,4823.000000,-1717.000000,1281.000000,7149.000000,-1686.000000,15.000000,-169.000000,-47.000000,1.000000
6.210000,-2199.000000,5945.000000,-2288.000000,-933.000000,4773.000000,-1775.000000,28.000000,-170.000000,-34.000000,1.000000
6.220000,-3481.000000,751.000000,-4774.000000,-1557.000000,-141.000000,-1528.000000,42.000000,-164.000000,-32.000000,1.000000
6.230000,-5367.000000,-491.000000,-5383.000000,-1754.000000,-2710.000000,-545.000000,42.000000,-164.000000,-32.000000,1.000000
6.240000,-3777.000000,-661.000000,-5570.000000,-490.000000,-6889.000000,125.000000,44.000000,-164.000000,-32.000000,1.000000
6.250000,-1180.000000,215.000000,-6924.000000,167.000000,-11813.000000,655.000000,44.000000,-164.000000,-32.000000,1.000000
6.260000,7520.000000,2675.000000,-780.000000,-425.000000,-18582.000000,3911.000000,32.000000,-162.000000,-44.000000,1.000000
6.270000,19290.000000,6974.000000,8015.000000,-2556.000000,-7933.000000,3120.000000,2.000000,-166.000000,-56.000000,1.000000
6.280000,12445.000000,7806.000000,8127.000000,-1864.000000,300.000000,1783.000000,-31.000000,-161.000000,-61.000000,1.000000
6.290000,380.000000,1187.000000,3555.000000,-1190.000000,4427.000000,-1412.000000,-31.000000,-161.000000,-61.000000,1.000000
6.300000,-3701.000000,3272.000000,2389.000000,145.000000,2159.000000,-1549.000000,-40.000000,-160.000000,-68.000000,1.000000
6.310000,-23577.000000,-14601.000000,15629.000000,23304.000000,-24573.000000,-18935.000000,-7176.000000,26623.000000,-17409.000000,1.000000
6.320000,-526.000000,3756.000000,342.000000,1134.000000,3183.000000,-2108.000000,-29.000000,-153.000000,-69.000000,1.000000
6.330000,1385.000000,3977.000000,-1099.000000,762.000000,4464.000000,-2042.000000,-15.000000,-157.000000,-69.000000,1.000000
6.340000,1967.000000,4500.000000,-898.000000,722.000000,4852.000000,-1856.000000,-15.000000,-157.000000,-69.000000,1.000000
6.350000,1164.000000,5635.000000,782.000000,164.000000,4145.000000,-1246.000000,-14.000000,-164.000000,-66.000000,1.000000
6.360000,161.000000,5332.000000,1847.000000,-282.000000,2755.000000,-280.000000,-14.000000,-164.000000,-66.000000,1.000000
6.370000,-28.000000,4422.000000,2611.000000,-469.000000,2041.000000,404.000000,-4.000000,-156.000000,-70.000000,1.000000
6.380000,132.000000,3582.000000,3076.000000,-566.000000,1565.000000,657.000000,-4.000000,-156.000000,-70.000000,1.000000
6.390000,373.000000,3188.000000,3413.000000,-697.000000,1027.000000,656.000000,4.000000,-156.000000,-70.000000,1.000000
6.400000,659.000000,3067.000000,2795.000000,-627.000000,706.000000,530.000000,4.000000,-156.000000,-70.000000,1.000000
6.410000,1211.000000,3076.000000,794.000000,-296.000000,-225.000000,393.000000,6.000000,-158.000000,-64.000000,1.000000
6.420000,614.000000,3857.000000,-1072.000000,211.000000,-1193.000000,380.000000,6.000000,-158.000000,-64.000000,1.000000
6.430000,-609.000000,4435.000000,-2380.000000,669.000000,-1914.000000,141.000000,0.000000,-160.000000,-64.000000,1.000000
6.440000,-2316.000000,4860.000000,-2644.000000,948.000000,-2642.000000,-568.000000,0.000000,-160.000000,-64.000000,1.000000
6.450000,-3565.000000,4068.000000,-2367.000000,959.000000,-3673.000000,-1307.000000,-5.000000,-163.000000,-63.000000,1.000000
6.460000,-4519.000000,4636.000000,-2333.000000,1283.000000,-4137.000000,-1520.000000,-5.000000,-163.000000,-63.000000,1.000000
6.470000,-4134.000000,5490.000000,-2674.000000,1936.000000,-4644.000000,-2114.000000,-13.000000,-161.000000,-61.000000,1.000000
6.480000,-3189.000000,6864.000000,-2809.000000,2380.000000,-5081.000000,-2841.000000,-13.000000,-161.000000,-61.000000,1.000000
6.490000,-2642.000000,8221.000000,-2861.000000,2414.000000,-5365.000000,-3481.000000,-9.000000,-165.000000,-59.000000,1.000000
6.500000,-2206.000000,9111.000000,-2831.000000,2115.000000,-5924.000000,-3873.000000,-9.000000,-165.000000,-59.000000,1.000000
6.510000,-1191.000000,9392.000000,-3182.000000,2046.000000,-6595.000000,-4283.000000,-18.000000,-170.000000,-54.000000,1.000000
6.520000,-133.000000,9545.000000,-3470.000000,2282.000000,-7087.000000,-4547.000000,-18.000000,-170.000000,-54.000000,1.000000
6.530000,586.000000,9889.000000,-3730.000000,2416.000000,-7687.000000,-4605.000000,-19.000000,-169.000000,-51.000000,1.000000
6.540000,954.000000,10219.000000,-3816.000000,2331.000000,-7961.000000,-4462.000000,-19.000000,-169.000000,-51.000000,1.000000
6.550000,1203.000000,10460.000000,-3771.000000,1912.000000,-8018.000000,-4210.000000,-17.000000,-179.000000,-51.000000,1.000000
6.560000,1284.000000,10400.000000,-3552.000000,1254.000000,-7924.000000,-3887.000000,-17.000000,-179.000000,-51.000000,1.000000
6.570000,1608.000000,10223.000000,-2490.000000,375.000000,-7880.000000,-3556.000000,-14.000000,-180.000000,-38.000000,1.000000
6.580000,1911.000000,9585.000000,-852.000000,-598.000000,-7862.000000,-3322.000000,-14.000000,-180.000000,-38.000000,1.000000
6.590000,1884.000000,8639.000000,1554.000000,-1604.000000,-7743.000000,-3144.000000,-22.000000,-184.000000,-42.000000,1.000000
6.600000,1840.000000,6753.000000,2845.000000,-2100.000000,-7339.000000,-3064.000000,-22.000000,-184.000000,-42.000000,1.000000
6.610000,1504.000000,4915.000000,3135.000000,-1529.000000,-6441.000000,-2977.000000,-23.000000,-183.000000,-47.000000,1.000000
6.620000,2016.000000,3928.000000,3803.000000,-1390.000000,-5044.000000,-2665.000000,-23.000000,-183.000000,-47.000000,1.000000
6.630000,3611.000000,3362.000000,4360.000000,-1634.000000,-2694.000000,-2114.000000,-25.000000,-179.000000,-43.000000,1.000000
6.640000,4780.000000,2946.000000,4170.000000,-1857.000000,2.000000,-1712.000000,-25.000000,-179.000000,-43.000000,1.000000
6.650000,5159.000000,2176.000000,3930.000000,-1870.000000,3500.000000,-1551.000000,-22.000000,-180.000000,-54.000000,1.000000
6.660000,5008.000000,1491.000000,3032.000000,-1822.000000,6573.000000,-1423.000000,-22.000000,-180.000000,-54.000000,1.000000
6.670000,4199.000000,1001.000000,1850.000000,-1684.000000,9341.000000,-1288.000000,-12.000000,-180.000000,-50.000000,1.000000
6.680000,3943.000000,432.000000,696.000000,-1547.000000,11408.000000,-1230.000000,-12.000000,-180.000000,-50.000000,1.000000
6.690000,4636.000000,-187.000000,105.000000,-1529.000000,13128.000000,-1036.000000,0.000000,-174.000000,-50.000000,1.000000
6.700000,6379.000000,-1882.000000,-579.000000,-1900.000000,13753.000000,-297.000000,18.000000,-168.000000,-44.000000,1.000000
6.710000,7461.000000,-2545.000000,214.000000,-2124.000000,12861.000000,526.000000,18.000000,-168.000000,-44.000000,1.000000
6.720000,8335.000000,-3464.000000,-483.000000,-2030.000000,12034.000000,1212.000000,37.000000,-169.000000,-39.000000,1.000000
6.730000,7870.000000,-4702.000000,-1419.000000,-1751.000000,10855.000000,1769.000000,37.000000,-169.000000,-39.000000,1.000000
6.740000,7034.000000,-4329.000000,-1642.000000,-1664.000000,10447.000000,2723.000000,55.000000,-165.000000,-25.000000,1.000000
6.750000,4390.000000,-2339.000000,-2713.000000,-1096.000000,9784.000000,3088.000000,55.000000,-165.000000,-25.000000,1.000000
6.760000,1592.000000,-171.000000,-4150.000000,211.000000,9601.000000,2935.000000,50.000000,-174.000000,-14.000000,1.000000
6.770000,-3275.000000,3408.000000,-2321.000000,442.000000,8834.000000,2588.000000,50.000000,-174.000000,-14.000000,1.000000
6.780000,-7178.000000,5522.000000,-1604.000000,-2407.000000,6059.000000,2115.000000,50.000000,-174.000000,-2.000000,1.000000
6.790000,-9427.000000,4528.000000,-1005.000000,-5564.000000,3091.000000,2370.000000,50.000000,-174.000000,-2.000000,1.000000
6.800000,-8632.000000,2439.000000,-2043.000000,-6434.000000,112.000000,2840.000000,45.000000,-179.000000,5.000000,1.000000
6.810000,-8550.000000,1395.000000,-3951.000000,-5503.000000,-2602.000000,2898.000000,45.000000,-179.000000,5.000000,1.000000
6.820000,-7844.000000,1005.000000,-5723.000000,-4747.000000,-5941.000000,2140.000000,41.000000,-181.000000,-5.000000,1.000000
6.830000,-6827.000000,1129.000000,-6760.000000,-4388.000000,-7355.000000,2022.000000,41.000000,-181.000000,-5.000000,1.000000
6.840000,-6167.000000,1279.000000,-8711.000000,-4249.000000,-8827.000000,2036.000000,26.000000,-178.000000,-20.000000,1.000000
6.850000,-5942.000000,1858.000000,-10385.000000,-3344.000000,-10820.000000,2538.000000,26.000000,-178.000000,-20.000000,1.000000
6.860000,-4530.000000,6286.000000,-8455.000000,-2774.000000,-18541.000000,6776.000000,14.000000,-176.000000,-40.000000,1.000000
6.870000,-1367.000000,10121.000000,-7591.000000,-3041.000000,-21357.000000,9699.000000,-18.000000,-170.000000,-48.000000,1.000000
6.880000,3974.000000,13928.000000,-5415.000000,-4193.000000,-23078.000000,10648.000000,-18.000000,-170.000000,-48.000000,1.000000
6.890000,5422.000000,14828.000000,-6315.000000,-3976.000000,-24126.000000,9321.000000,-65.000000,-165.000000,-43.000000,1.000000
6.900000,7321.000000,13332.000000,-1817.000000,-3409.000000,-18410.000000,6756.000000,-65.000000,-165.000000,-43.000000,1.000000
6.910000,9570.000000,10796.000000,-1264.000000,-3296.000000,-12321.000000,3020.000000,-109.000000,-141.000000,-15.000000,1.000000
6.920000,11585.000000,3859.000000,2864.000000,-2463.000000,-3736.000000,-313.000000,-109.000000,-141.000000,-15.000000,1.000000
6.930000,12047.000000,3161.000000,4143.000000,-1824.000000,4945.000000,-2394.000000,-122.000000,-146.000000,0.000000,1.000000
6.940000,8546.000000,5499.000000,1699.000000,-1106.000000,9831.000000,-4152.000000,-122.000000,-146.000000,0.000000,1.000000
6.950000,9330.000000,4755.000000,-1010.000000,136.000000,12987.000000,-5511.000000,-118.000000,-148.000000,-6.000000,1.000000
6.960000,11450.000000,1446.000000,-192.000000,339.000000,13174.000000,-5521.000000,-118.000000,-148.000000,-6.000000,1.000000
6.970000,13829.000000,-821.000000,1411.000000,120.000000,13924.000000,-3046.000000,-101.000000,-159.000000,-25.000000,1.000000
6.980000,17564.000000,-586.000000,4274.000000,-654.000000,16399.000000,-706.000000,-101.000000,-159.000000,-25.000000,1.000000
6.990000,19985.000000,-1337.000000,-7918.000000,-439.000000,18061.000000,1045.000000,-74.000000,-158.000000,-48.000000,1.000000
7.000000,10656.000000,466.000000,-15376.000000,4248.000000,20205.000000,-866.000000,-74.000000,-158.000000,-48.000000,1.000000
7.010000,-5225.000000,2296.000000,-16278.000000,6802.000000,17840.000000,-2144.000000,-51.000000,-167.000000,-55.000000,1.000000
7.020000,-18474.000000,10961.000000,-8962.000000,-1301.000000,12385.000000,-3084.000000,-51.000000,-167.000000,-55.000000,1.000000
7.030000,-17347.000000,6031.000000,-5413.000000,-6082.000000,6458.000000,138.000000,-9.000000,-169.000000,-51.000000,1.000000
7.040000,-10964.000000,588.000000,-3690.000000,-5322.000000,2020.000000,991.000000,-9.000000,-169.000000,-51.000000,1.000000
7.050000,-2305.000000,129.000000,-6015.000000,-1954.000000,-3636.000000,239.000000,0.000000,-166.000000,-52.000000,1.000000
7.060000,63.000000,1047.000000,-8596.000000,-954.000000,-7343.000000,705.000000,0.000000,-166.000000,-52.000000,1.000000
7.070000,-1430.000000,425.000000,-7563.000000,-1145.000000,-9383.000000,790.000000,-6.000000,-160.000000,-66.000000,1.000000
7.080000,-2531.000000,-1461.000000,-8070.000000,-1383.000000,-9774.000000,280.000000,-6.000000,-160.000000,-66.000000,1.000000
7.090000,-32713.000000,-14083.000000,-6.000000,-28202.000000,4864.000000,13011.000000,-6397.000000,23551.000000,-15361.000000,1.000000
7.100000,-148.000000,521.000000,-7444.000000,594.000000,-17192.000000,1595.000000,-25.000000,-165.000000,-61.000000,1.000000
7.110000,2095.000000,4939.000000,-1539.000000,167.000000,-19869.000000,2243.000000,-49.000000,-157.000000,-57.000000,1.000000
7.120000,8631.000000,9000.000000,3424.000000,-442.000000,-17561.000000,4411.000000,-49.000000,-157.000000,-57.000000,1.000000
7.130000,15597.000000,9428.000000,3961.000000,-3413.000000,-13543.000000,3771.000000,-81.000000,-155.000000,-43.000000,1.000000
7.140000,19895.000000,4249.000000,7184.000000,-1754.000000,-6359.000000,1556.000000,-81.000000,-155.000000,-43.000000,1.000000
7.150000,10564.000000,3291.000000,4433.000000,-460.000000,1937.000000,-643.000000,-103.000000,-153.000000,-29.000000,1.000000
7.160000,2340.000000,2681.000000,2430.000000,363.000000,4878.000000,-1022.000000,-103.000000,-153.000000,-29.000000,1.000000
7.170000,-747.000000,4962.000000,3605.000000,501.000000,6171.000000,-609.000000,-97.000000,-153.000000,-23.000000,1.000000
7.180000,178.000000,5349.000000,3630.000000,341.000000,8444.000000,-1082.000000,-97.000000,-153.000000,-23.000000,1.000000
7.190000,9598.000000,1608.000000,-4706.000000,2002.000000,12115.000000,-1567.000000,-97.000000,-155.000000,-39.000000,1.000000
7.200000,6568.000000,2450.000000,-5853.000000,2375.000000,11342.000000,-1555.000000,-75.000000,-161.000000,-47.000000,1.000000
7.210000,1319.000000,3608.000000,-3759.000000,2568.000000,10297.000000,-2066.000000,-75.000000,-161.000000,-47.000000,1.000000
7.220000,-2099.000000,3980.000000,-2776.000000,2293.000000,9170.000000,-1495.000000,-58.000000,-164.000000,-52.000000,1.000000
7.230000,-5537.000000,6685.000000,-1396.000000,540.000000,8115.000000,-717.000000,-58.000000,-164.000000,-52.000000,1.000000
7.240000,-2339.000000,3927.000000,-5401.000000,-345.000000,2784.000000,-1435.000000,-43.000000,-169.000000,-53.000000,1.000000
7.250000,-5993.000000,451.000000,-8211.000000,-286.000000,-5306.000000,461.000000,-28.000000,-166.000000,-62.000000,1.000000
7.260000,-3271.000000,872.000000,-7622.000000,1005.000000,-10125.000000,1344.000000,-25.000000,-167.000000,-55.000000,1.000000
7.270000,-918.000000,2022.000000,-8413.000000,897.000000,-16792.000000,1667.000000,-25.000000,-167.000000,-55.000000,1.000000
7.280000,6688.000000,12658.000000,4378.000000,-1917.000000,-16756.000000,4374.000000,-43.000000,-169.000000,-51.000000,1.000000
7.290000,19047.000000,7612.000000,7859.000000,-1558.000000,-13392.000000,1926.000000,-83.000000,-167.000000,-35.000000,1.000000
7.300000,20239.000000,3247.000000,8072.000000,195.000000,-5129.000000,298.000000,-83.000000,-167.000000,-35.000000,1.000000
7.310000,7989.000000,2140.000000,6475.000000,876.000000,199.000000,-1654.000000,-94.000000,-166.000000,-26.000000,1.000000
7.320000,2217.000000,4817.000000,5701.000000,991.000000,6840.000000,-2380.000000,-95.000000,-165.000000,-23.000000,1.000000
7.330000,5571.000000,733.000000,-3685.000000,1515.000000,10538.000000,-2710.000000,-81.000000,-171.000000,-25.000000,1.000000
7.340000,5400.000000,1873.000000,-4386.000000,1919.000000,10446.000000,-2169.000000,-81.000000,-171.000000,-25.000000,1.000000
7.350000,26199.000000,-1790.000000,-1518.000000,-1543.000000,19719.000000,13094.000000,-16394.000000,20991.000000,-8705.000000,1.000000
7.360000,-2452.000000,4441.000000,-2173.000000,2052.000000,8337.000000,-2539.000000,-65.000000,-175.000000,-35.000000,1.000000
7.370000,-5243.000000,5811.000000,186.000000,62.000000,6545.000000,-1851.000000,-46.000000,-178.000000,-38.000000,1.000000
7.380000,-3743.000000,5082.000000,-1886.000000,-861.000000,4815.000000,-1285.000000,-46.000000,-178.000000,-38.000000,1.000000
7.390000,-807.000000,3032.000000,-3452.000000,-1294.000000,2913.000000,-1413.000000,-32.000000,-178.000000,-40.000000,1.000000
7.400000,-2572.000000,1257.000000,-4103.000000,-1744.000000,469.000000,-1356.000000,-32.000000,-178.000000,-40.000000,1.000000
7.410000,-3549.000000,41.000000,-4849.000000,-875.000000,-2253.000000,-690.000000,-29.000000,-187.000000,-45.000000,1.000000
7.420000,-3309.000000,-12.000000,-4169.000000,62.000000,-6486.000000,-366.000000,-29.000000,-187.000000,-45.000000,1.000000
7.430000,-2400.000000,752.000000,-2450.000000,-1.000000,-10643.000000,-181.000000,-25.000000,-177.000000,-43.000000,1.000000
7.440000,25952.000000,32764.000000,18186.000000,26885.000000,-2.000000,-23093.000000,-6397.000000,20479.000000,-10753.000000,1.000000
7.450000,834.000000,9519.000000,7357.000000,-1062.000000,-12382.000000,2655.000000,-38.000000,-178.000000,-42.000000,1.000000
7.460000,5325.000000,8218.000000,2763.000000,-2464.000000,-11790.000000,2147.000000,-38.000000,-178.000000,-42.000000,1.000000
7.470000,9138.000000,5951.000000,5988.000000,-1792.000000,-7721.000000,1850.000000,-61.000000,-177.000000,-33.000000,1.000000
7.480000,8299.000000,2458.000000,5680.000000,-1067.000000,-3623.000000,163.000000,-61.000000,-177.000000,-33.000000,1.000000
7.490000,2350.000000,1440.000000,4285.000000,-70.000000,-1550.000000,-992.000000,-69.000000,-175.000000,-33.000000,1.000000
7.500000,-366.000000,3802.000000,4468.000000,565.000000,-1370.000000,-1430.000000,-69.000000,-175.000000,-33.000000,1.000000
7.510000,-1061.000000,5630.000000,5006.000000,634.000000,-1181.000000,-1745.000000,-73.000000,-175.000000,-35.000000,1.000000
7.520000,-829.000000,6942.000000,1647.000000,-92.000000,317.000000,-2399.000000,-69.000000,-179.000000,-37.000000,1.000000
7.530000,-121.000000,5776.000000,-280.000000,-51.000000,1059.000000,-3299.000000,-69.000000,-179.000000,-37.000000,1.000000
7.540000,170.000000,5443.000000,-1501.000000,559.000000,1795.000000,-3732.000000,-62.000000,-182.000000,-32.000000,1.000000
7.550000,-487.000000,5868.000000,-1578.000000,1044.000000,2158.000000,-3896.000000,-62.000000,-182.000000,-32.000000,1.000000
7.560000,-1727.000000,6750.000000,-1403.000000,1237.000000,1956.000000,-4211.000000,-51.000000,-185.000000,-35.000000,1.000000
7.570000,-3149.000000,6647.000000,-1646.000000,1624.000000,1679.000000,-4536.000000,-51.000000,-185.000000,-35.000000,1.000000
7.580000,-4093.000000,7228.000000,-1338.000000,1534.000000,1626.000000,-4362.000000,-39.000000,-187.000000,-35.000000,1.000000
7.590000,-3470.000000,7135.000000,-1299.000000,862.000000,-778.000000,-4180.000000,-27.000000,-189.000000,-31.000000,1.000000
7.600000,-3526.000000,6767.000000,-1357.000000,652.000000,-2157.000000,-4190.000000,-27.000000,-189.000000,-31.000000,1.000000
7.610000,-3844.000000,6404.000000,-1789.000000,632.000000,-3874.000000,-4155.000000,-12.000000,-188.000000,-32.000000,1.000000
7.620000,-3909.000000,6217.000000,-2119.000000,436.000000,-6261.000000,-3916.000000,-12.000000,-188.000000,-32.000000,1.000000
7.630000,-2822.000000,6091.000000,-2325.000000,-15.000000,-8770.000000,-3562.000000,-6.000000,-188.000000,-30.000000,1.000000
7.640000,-1101.000000,5673.000000,-2395.000000,-449.000000,-10501.000000,-3075.000000,-6.000000,-188.000000,-30.000000,1.000000
7.650000,426.000000,5245.000000,-2395.000000,-998.000000,-11393.000000,-2613.000000,-8.000000,-192.000000,-36.000000,1.000000
7.660000,2055.000000,3950.000000,-1274.000000,-1967.000000,-11478.000000,-2115.000000,-13.000000,-187.000000,-41.000000,1.000000
7.670000,2693.000000,3070.000000,-481.000000,-1993.000000,-10619.000000,-1808.000000,-13.000000,-187.000000,-41.000000,1.000000
7.680000,2848.000000,2557.000000,311.000000,-2044.000000,-9507.000000,-1314.000000,-22.000000,-188.000000,-46.000000,1.000000
7.690000,2536.000000,2406.000000,739.000000,-2228.000000,-8409.000000,-984.000000,-22.000000,-188.000000,-46.000000,1.000000
7.700000,2255.000000,2144.000000,1142.000000,-2194.000000,-7407.000000,-797.000000,-36.000000,-184.000000,-44.000000,1.000000
7.710000,2414.000000,2263.000000,1618.000000,-2239.000000,-5691.000000,-508.000000,-36.000000,-184.000000,-44.000000,1.000000
7.720000,2528.000000,2294.000000,2610.000000,-2283.000000,-2528.000000,-271.000000,-43.000000,-181.000000,-47.000000,1.000000
7.730000,2259.000000,2261.000000,2762.000000,-2257.000000,-796.000000,-152.000000,-50.000000,-176.000000,-50.000000,1.000000
7.740000,1884.000000,2118.000000,2624.000000,-2214.000000,869.000000,-61.000000,-50.000000,-176.000000,-50.000000,1.000000
7.750000,1456.000000,2051.000000,2336.000000,-2170.000000,2435.000000,-15.000000,-51.000000,-173.000000,-59.000000,1.000000
7.760000,1149.000000,1926.000000,1698.000000,-2042.000000,4016.000000,3.000000,-51.000000,-173.000000,-59.000000,1.000000
7.770000,984.000000,1864.000000,875.000000,-1847.000000,5675.000000,-48.000000,-47.000000,-175.000000,-65.000000,1.000000
7.780000,1198.000000,1627.000000,-968.000000,-1705.000000,7373.000000,-108.000000,-47.000000,-175.000000,-65.000000,1.000000
7.790000,-1662.000000,1454.000000,-4477.000000,-1475.000000,8992.000000,-529.000000,-43.000000,-169.000000,-69.000000,1.000000
7.800000,-5102.000000,1356.000000,-4011.000000,-1256.000000,7551.000000,-743.000000,-30.000000,-160.000000,-72.000000,1.000000
7.810000,-7734.000000,1941.000000,-2282.000000,-1464.000000,4999.000000,-564.000000,-30.000000,-160.000000,-72.000000,1.000000
7.820000,-8216.000000,1009.000000,-2023.000000,-1584.000000,746.000000,-392.000000,-12.000000,-160.000000,-74.000000,1.000000
7.830000,-6678.000000,1321.000000,791.000000,-1559.000000,-2902.000000,-109.000000,-12.000000,-160.000000,-74.000000,1.000000
7.840000,-2934.000000,1328.000000,2174.000000,-2006.000000,-5256.000000,602.000000,-8.000000,-152.000000,-80.000000,1.000000
7.850000,2980.000000,82.000000,4253.000000,-2268.000000,-4570.000000,1020.000000,-15.000000,-149.000000,-87.000000,1.000000
7.860000,3162.000000,165.000000,3925.000000,-2173.000000,-2456.000000,1122.000000,-15.000000,-149.000000,-87.000000,1.000000
7.870000,1704.000000,305.000000,3226.000000,-2058.000000,-944.000000,1239.000000,-29.000000,-151.000000,-85.000000,1.000000
7.880000,431.000000,300.000000,1607.000000,-1845.000000,-59.000000,1449.000000,-29.000000,-151.000000,-85.000000,1.000000
7.890000,-290.000000,439.000000,390.000000,-1403.000000,552.000000,1735.000000,-32.000000,-146.000000,-88.000000,1.000000
7.900000,-146.000000,403.000000,-358.000000,-836.000000,1216.000000,2039.000000,-32.000000,-146.000000,-88.000000,1.000000
7.910000,-171.000000,629.000000,-327.000000,-165.000000,2187.000000,2252.000000,-35.000000,-143.000000,-91.000000,1.000000
7.920000,-829.000000,1748.000000,-95.000000,1377.000000,3976.000000,2666.000000,-33.000000,-133.000000,-89.000000,1.000000
7.930000,-899.000000,2164.000000,-311.000000,2210.000000,4809.000000,2866.000000,-33.000000,-133.000000,-89.000000,1.000000
7.940000,-1229.000000,2625.000000,-252.000000,3065.000000,5700.000000,3053.000000,-34.000000,-144.000000,-90.000000,1.000000
7.950000,-1717.000000,3121.000000,75.000000,3984.000000,6665.000000,3118.000000,-34.000000,-144.000000,-90.000000,1.000000
7.960000,-1760.000000,3343.000000,612.000000,4865.000000,7109.000000,3252.000000,-21.000000,-143.000000,-89.000000,1.000000
7.970000,-1526.000000,3933.000000,1647.000000,5523.000000,6680.000000,3577.000000,-21.000000,-143.000000,-89.000000,1.000000
7.980000,-1132.000000,4954.000000,3093.000000,5844.000000,5888.000000,3995.000000,-9.000000,-159.000000,-83.000000,1.000000
7.990000,-669.000000,6157.000000,3823.000000,5649.000000,4607.000000,4368.000000,-9.000000,-159.000000,-83.000000,1.000000
8.000000,-642.000000,7714.000000,3245.000000,5365.000000,2558.000000,4824.000000,-9.000000,-163.000000,-67.000000,1.000000
8.010000,-1022.000000,9060.000000,795.000000,5151.000000,-842.000000,4672.000000,-9.000000,-163.000000,-67.000000,1.000000
8.020000,-3213.000000,9627.000000,-455.000000,5159.000000,-4594.000000,4161.000000,-12.000000,-176.000000,-64.000000,1.000000
8.030000,-7004.000000,9982.000000,-1136.000000,5446.000000,-8190.000000,2917.000000,-12.000000,-176.000000,-64.000000,1.000000
8.040000,-11136.000000,10828.000000,-2151.000000,4850.000000,-10518.000000,2094.000000,-28.000000,-184.000000,-46.000000,1.000000
8.050000,-11637.000000,10392.000000,-4708.000000,4613.000000,-11093.000000,506.000000,-28.000000,-184.000000,-46.000000,1.000000
8.060000,-4540.000000,8120.000000,-4695.000000,4325.000000,-11414.000000,-1262.000000,-43.000000,-195.000000,-37.000000,1.000000
8.070000,-2093.000000,9210.000000,-3194.000000,3344.000000,-10522.000000,-1223.000000,-54.000000,-188.000000,-16.000000,1.000000
8.080000,-1269.000000,7873.000000,-4749.000000,2695.000000,-10670.000000,-1539.000000,-54.000000,-188.000000,-16.000000,1.000000
8.090000,-845.000000,7362.000000,-3381.000000,1599.000000,-10807.000000,-1386.000000,-59.000000,-195.000000,3.000000,1.000000
8.100000,589.000000,6362.000000,-3423.000000,850.000000,-10430.000000,-1062.000000,-59.000000,-195.000000,3.000000,1.000000
8.110000,2241.000000,5849.000000,-2745.000000,243.000000,-10392.000000,-1021.000000,-53.000000,-199.000000,17.000000,1.000000
8.120000,4603.000000,4823.000000,-1860.000000,-289.000000,-9732.000000,-741.000000,-53.000000,-199.000000,17.000000,1.000000
8.130000,9911.000000,2175.000000,815.000000,-1462.000000,-5022.000000,512.000000,-47.000000,-195.000000,29.000000,1.000000
8.140000,10841.000000,499.000000,1408.000000,-1962.000000,-2065.000000,702.000000,-46.000000,-202.000000,28.000000,1.000000
8.150000,7239.000000,-2303.000000,1441.000000,985.000000,3594.000000,1197.000000,-49.000000,-197.000000,29.000000,1.000000
8.160000,3835.000000,-474.000000,1274.000000,1058.000000,6301.000000,1432.000000,-49.000000,-197.000000,29.000000,1.000000
8.170000,1932.000000,1105.000000,952.000000,816.000000,7945.000000,1569.000000,-53.000000,-199.000000,21.000000,1.000000
8.180000,-234.000000,2548.000000,753.000000,221.000000,9120.000000,1789.000000,-53.000000,-199.000000,21.000000,1.000000
8.190000,-4475.000000,3308.000000,-431.000000,-945.000000,9967.000000,1739.000000,-52.000000,-192.000000,22.000000,1.000000
8.200000,-5603.000000,3671.000000,-687.000000,-1146.000000,9613.000000,1914.000000,-63.000000,-197.000000,13.000000,1.000000
8.210000,-5426.000000,4331.000000,13.000000,-1449.000000,8374.000000,2530.000000,-63.000000,-197.000000,13.000000,1.000000
8.220000,-2120.000000,4681.000000,23.000000,-2242.000000,6236.000000,3166.000000,-67.000000,-193.000000,1.000000,1.000000
8.230000,-717.000000,6395.000000,-4166.000000,-2424.000000,6513.000000,3462.000000,-76.000000,-188.000000,-8.000000,1.000000
8.240000,-3212.000000,7419.000000,-5359.000000,-1822.000000,4005.000000,3528.000000,-78.000000,-184.000000,-14.000000,1.000000
8.250000,-5169.000000,8278.000000,-3836.000000,-976.000000,1291.000000,3683.000000,-78.000000,-184.000000,-14.000000,1.000000
8.260000,-6409.000000,8405.000000,-1967.000000,-105.000000,-2523.000000,3875.000000,-77.000000,-175.000000,-27.000000,1.000000
8.270000,-7509.000000,7518.000000,-366.000000,467.000000,-7020.000000,3235.000000,-77.000000,-175.000000,-27.000000,1.000000
8.280000,-6828.000000,6479.000000,-504.000000,630.000000,-10630.000000,2132.000000,-92.000000,-166.000000,-22.000000,1.000000
8.290000,-2715.000000,5649.000000,-4629.000000,836.000000,-17595.000000,288.000000,-103.000000,-167.000000,-9.000000,1.000000
8.300000,-1374.000000,5624.000000,-5900.000000,714.000000,-18811.000000,-1042.000000,-103.000000,-167.000000,-9.000000,1.000000
8.310000,282.000000,5827.000000,-4778.000000,369.000000,-16689.000000,-2332.000000,-105.000000,-165.000000,19.000000,1.000000
8.320000,3344.000000,7047.000000,-2773.000000,-199.000000,-11870.000000,-2970.000000,-105.000000,-165.000000,19.000000,1.000000
8.330000,6575.000000,7472.000000,-1419.000000,-562.000000,-6716.000000,-3488.000000,-94.000000,-162.000000,50.000000,1.000000
8.340000,7323.000000,7084.000000,-1025.000000,-285.000000,-2238.000000,-4440.000000,-94.000000,-162.000000,50.000000,1.000000
8.350000,4368.000000,6748.000000,-852.000000,-1.000000,1381.000000,-5121.000000,-78.000000,-178.000000,56.000000,1.000000
8.360000,641.000000,4040.000000,-2282.000000,667.000000,2605.000000,-3397.000000,-66.000000,-186.000000,54.000000,1.000000
8.370000,-398.000000,3446.000000,-2216.000000,795.000000,1721.000000,-3249.000000,-66.000000,-186.000000,54.000000,1.000000
8.380000,-3115.000000,2412.000000,-3357.000000,1243.000000,-1110.000000,-2286.000000,-54.000000,-184.000000,56.000000,1.000000
8.390000,-3718.000000,2002.000000,-3860.000000,1279.000000,-2922.000000,-1911.000000,-54.000000,-184.000000,56.000000,1.000000
8.400000,-3153.000000,1756.000000,-4265.000000,1260.000000,-5073.000000,-1355.000000,-41.000000,-187.000000,63.000000,1.000000
8.410000,-2059.000000,2173.000000,-2032.000000,1107.000000,-9237.000000,-785.000000,-33.000000,-189.000000,65.000000,1.000000
8.420000,-2323.000000,2146.000000,-1319.000000,1236.000000,-11860.000000,-631.000000,-33.000000,-189.000000,65.000000,1.000000
8.430000,-2480.000000,2176.000000,-1480.000000,1423.000000,-14082.000000,-447.000000,-20.000000,-188.000000,70.000000,1.000000
8.440000,-749.000000,2538.000000,-919.000000,1207.000000,-14485.000000,-115.000000,-20.000000,-188.000000,70.000000,1.000000
8.450000,2215.000000,2710.000000,-289.000000,1038.000000,-13033.000000,86.000000,-4.000000,-192.000000,74.000000,1.000000
8.460000,-31270.000000,24342.000000,-20467.000000,11524.000000,32260.000000,-24357.000000,-770.000000,16639.000000,19199.000000,1.000000
8.470000,7644.000000,3365.000000,2675.000000,1157.000000,994.000000,-702.000000,12.000000,-188.000000,68.000000,1.000000
8.480000,4966.000000,2944.000000,1323.000000,1520.000000,4571.000000,-970.000000,23.000000,-181.000000,67.000000,1.000000
8.490000,2422.000000,3146.000000,471.000000,1627.000000,6588.000000,-950.000000,23.000000,-181.000000,67.000000,1.000000
8.500000,1742.000000,3426.000000,285.000000,1636.000000,8003.000000,-669.000000,20.000000,-174.000000,74.000000,1.000000
8.510000,1043.000000,3863.000000,62.000000,1293.000000,8848.000000,-240.000000,20.000000,-174.000000,74.000000,1.000000
8.520000,761.000000,3670.000000,-24.000000,1018.000000,9342.000000,22.000000,10.000000,-176.000000,80.000000,1.000000
8.530000,540.000000,3537.000000,-513.000000,318.000000,9941.000000,349.000000,-2.000000,-174.000000,88.000000,1.000000
8.540000,536.000000,3474.000000,-768.000000,-260.000000,10127.000000,458.000000,-2.000000,-174.000000,88.000000,1.000000
8.550000,224.000000,3265.000000,-1475.000000,-752.000000,10054.000000,396.000000,-23.000000,-175.000000,91.000000,1.000000
8.560000,-164.000000,3412.000000,-1574.000000,-1224.000000,9913.000000,454.000000,-23.000000,-175.000000,91.000000,1.000000
8.570000,-1155.000000,3724.000000,-2743.000000,-1857.000000,8981.000000,554.000000,-37.000000,-169.000000,91.000000,1.000000
8.580000,-4251.000000,3451.000000,-3336.000000,-2392.000000,6867.000000,415.000000,-37.000000,-169.000000,91.000000,1.000000
8.590000,-6363.000000,3043.000000,-3302.000000,-2702.000000,5141.000000,549.000000,-57.000000,-179.000000,79.000000,1.000000
8.600000,-6685.000000,2488.000000,-4333.000000,-2859.000000,2604.000000,527.000000,-57.000000,-179.000000,79.000000,1.000000
8.610000,-8582.000000,1968.000000,-5683.000000,-2371.000000,-272.000000,-93.000000,-62.000000,-178.000000,68.000000,1.000000
8.620000,-8761.000000,1483.000000,-7569.000000,-2038.000000,-3465.000000,156.000000,-62.000000,-178.000000,68.000000,1.000000
8.630000,-5419.000000,667.000000,-9481.000000,-1072.000000,-7503.000000,1892.000000,-61.000000,-183.000000,63.000000,1.000000
8.640000,-1098.000000,521.000000,-9427.000000,-660.000000,-11560.000000,3439.000000,-61.000000,-183.000000,63.000000,1.000000
8.650000,1568.000000,1123.000000,-7022.000000,-383.000000,-14572.000000,4154.000000,-63.000000,-183.000000,69.000000,1.000000
8.660000,4632.000000,2626.000000,-3216.000000,647.000000,-15148.000000,4598.000000,-63.000000,-183.000000,69.000000,1.000000
8.670000,5483.000000,10380.000000,4061.000000,755.000000,-12982.000000,6097.000000,-52.000000,-176.000000,76.000000,1.000000
8.680000,7407.000000,10259.000000,1002.000000,-175.000000,-11686.000000,5247.000000,-52.000000,-176.000000,76.000000,1.000000
8.690000,8178.000000,9228.000000,4556.000000,410.000000,-8048.000000,3709.000000,-42.000000,-178.000000,86.000000,1.000000
8.700000,1298.000000,4860.000000,4441.000000,1337.000000,-2630.000000,1309.000000,-36.000000,-176.000000,92.000000,1.000000
8.710000,355.000000,6926.000000,3842.000000,1378.000000,-1653.000000,626.000000,-36.000000,-176.000000,92.000000,1.000000
8.720000,861.000000,8606.000000,3874.000000,964.000000,-360.000000,-1.000000,-31.000000,-171.000000,93.000000,1.000000
8.730000,1630.000000,8913.000000,2937.000000,335.000000,1445.000000,-549.000000,-31.000000,-171.000000,93.000000,1.000000
8.740000,1627.000000,8719.000000,1452.000000,-199.000000,3190.000000,-1297.000000,-35.000000,-171.000000,93.000000,1.000000
8.750000,1496.000000,7852.000000,-363.000000,-560.000000,4946.000000,-2132.000000,-35.000000,-171.000000,93.000000,1.000000
8.760000,955.000000,6878.000000,-2395.000000,-220.000000,6389.000000,-2819.000000,-32.000000,-174.000000,96.000000,1.000000
8.770000,1129.000000,6210.000000,-3479.000000,358.000000,7441.000000,-3180.000000,-32.000000,-174.000000,96.000000,1.000000
8.780000,1182.000000,6150.000000,-3828.000000,484.000000,7820.000000,-3382.000000,-40.000000,-174.000000,94.000000,1.000000
8.790000,545.000000,6122.000000,-3450.000000,318.000000,7488.000000,-3512.000000,-40.000000,-174.000000,94.000000,1.000000
8.800000,-650.000000,5721.000000,-2750.000000,99.000000,6547.000000,-3597.000000,-45.000000,-175.000000,89.000000,1.000000
8.810000,-1443.000000,4943.000000,-2205.000000,-83.000000,5643.000000,-3520.000000,-45.000000,-175.000000,89.000000,1.000000
8.820000,-1933.000000,4330.000000,-1578.000000,-427.000000,4578.000000,-3192.000000,-53.000000,-181.000000,91.000000,1.000000
8.830000,-1851.000000,3866.000000,-1028.000000,-776.000000,3570.000000,-2928.000000,-53.000000,-181.000000,91.000000,1.000000
8.840000,-1512.000000,3554.000000,-505.000000,-1031.000000,2951.000000,-2792.000000,-42.000000,-178.000000,80.000000,1.000000
8.850000,-1239.000000,3347.000000,83.000000,-1398.000000,2720.000000,-2683.000000,-42.000000,-178.000000,80.000000,1.000000
8.860000,-1256.000000,3146.000000,455.000000,-1875.000000,2601.000000,-2628.000000,-50.000000,-186.000000,76.000000,1.000000
8.870000,-1269.000000,2769.000000,807.000000,-2405.000000,2619.000000,-2627.000000,-50.000000,-186.000000,76.000000,1.000000
8.880000,-1391.000000,2365.000000,903.000000,-2819.000000,2574.000000,-2650.000000,-47.000000,-187.000000,79.000000,1.000000
8.890000,-1249.000000,2120.000000,1012.000000,-3076.000000,2552.000000,-2683.000000,-47.000000,-187.000000,79.000000,1.000000
8.900000,-899.000000,2259.000000,1598.000000,-3483.000000,2739.000000,-2744.000000,-38.000000,-190.000000,66.000000,1.000000
8.910000,-419.000000,2357.000000,1583.000000,-3957.000000,3041.000000,-2799.000000,-38.000000,-190.000000,66.000000,1.000000
8.920000,79.000000,2389.000000,1494.000000,-4369.000000,3455.000000,-2861.000000,-37.000000,-199.000000,59.000000,1.000000
8.930000,805.000000,2380.000000,1205.000000,-4782.000000,4247.000000,-2875.000000,-37.000000,-199.000000,59.000000,1.000000
8.940000,1829.000000,2309.000000,572.000000,-5128.000000,5224.000000,-2874.000000,-32.000000,-202.000000,46.000000,1.000000
8.950000,2360.000000,2226.000000,-200.000000,-5298.000000,5905.000000,-2993.000000,-32.000000,-202.000000,46.000000,1.000000
8.960000,2814.000000,1997.000000,-584.000000,-5319.000000,6922.000000,-3133.000000,-20.000000,-202.000000,36.000000,1.000000
8.970000,3549.000000,1943.000000,-1362.000000,-5333.000000,8093.000000,-3223.000000,-20.000000,-202.000000,36.000000,1.000000
8.980000,3604.000000,1795.000000,-2241.000000,-5036.000000,8854.000000,-3439.000000,-16.000000,-204.000000,16.000000,1.000000
8.990000,3332.000000,1862.000000,-2053.000000,-4701.000000,9857.000000,-3716.000000,-16.000000,-204.000000,16.000000,1.000000
9.000000,3112.000000,1912.000000,-2183.000000,-4621.000000,10876.000000,-4269.000000,-15.000000,-207.000000,7.000000,1.000000
9.010000,3280.000000,1688.000000,-2023.000000,-4233.000000,11802.000000,-4606.000000,-15.000000,-207.000000,7.000000,1.000000
9.020000,4234.000000,1343.000000,-2778.000000,-3764.000000,12670.000000,-4620.000000,3.000000,-205.000000,3.000000,1.000000
9.030000,4064.000000,1544.000000,-3476.000000,-3161.000000,13210.000000,-4702.000000,3.000000,-205.000000,3.000000,1.000000
9.040000,3681.000000,1140.000000,-4091.000000,-2679.000000,13460.000000,-4966.000000,25.000000,-199.000000,-3.000000,1.000000
9.050000,3059.000000,1141.000000,-4669.000000,-2293.000000,13674.000000,-4876.000000,25.000000,-199.000000,-3.000000,1.000000
9.060000,2204.000000,1095.000000,-4687.000000,-2084.000000,12794.000000,-4692.000000,45.000000,-185.000000,5.000000,1.000000
9.070000,2012.000000,946.000000,-3470.000000,-2259.000000,11627.000000,-4161.000000,45.000000,-185.000000,5.000000,1.000000
9.080000,2209.000000,538.000000,-1974.000000,-2842.000000,10271.000000,-3422.000000,52.000000,-186.000000,18.000000,1.000000
9.090000,2095.000000,11.000000,-1748.000000,-3319.000000,8982.000000,-2358.000000,52.000000,-186.000000,18.000000,1.000000
9.100000,808.000000,366.000000,-1910.000000,-3443.000000,8241.000000,-1176.000000,63.000000,-177.000000,27.000000,1.000000
9.110000,-1481.000000,2203.000000,-3001.000000,-3490.000000,7081.000000,-4.000000,63.000000,-177.000000,27.000000,1.000000
9.120000,-3939.000000,4181.000000,-3067.000000,-3884.000000,4510.000000,788.000000,63.000000,-175.000000,31.000000,1.000000
9.130000,-5352.000000,4521.000000,-3331.000000,-4635.000000,1848.000000,1988.000000,63.000000,-175.000000,31.000000,1.000000
9.140000,-6356.000000,4581.000000,-4641.000000,-4806.000000,-1140.000000,3046.000000,58.000000,-178.000000,28.000000,1.000000
9.150000,-7726.000000,5134.000000,-5297.000000,-4558.000000,-4574.000000,3712.000000,58.000000,-178.000000,28.000000,1.000000
9.160000,-9089.000000,4968.000000,-6247.000000,-4333.000000,-7734.000000,4230.000000,55.000000,-185.000000,21.000000,1.000000
9.170000,-9926.000000,4262.000000,-7827.000000,-3837.000000,-10461.000000,4683.000000,55.000000,-185.000000,21.000000,1.000000
9.180000,-11624.000000,3783.000000,-10294.000000,-2764.000000,-14063.000000,5146.000000,37.000000,-195.000000,3.000000,1.000000
9.190000,-12699.000000,3972.000000,-11108.000000,-1969.000000,-17549.000000,5237.000000,37.000000,-195.000000,3.000000,1.000000
9.200000,-9918.000000,4047.000000,-9843.000000,-928.000000,-18525.000000,5474.000000,19.000000,-199.000000,-23.000000,1.000000
9.210000,-3584.000000,4458.000000,-11645.000000,-986.000000,-20249.000000,6323.000000,19.000000,-199.000000,-23.000000,1.000000
9.220000,1726.000000,5472.000000,-11153.000000,-1219.000000,-24693.000000,6193.000000,-17.000000,-195.000000,-31.000000,1.000000
9.230000,4871.000000,7585.000000,-6907.000000,-1137.000000,-25852.000000,5646.000000,-17.000000,-195.000000,-31.000000,1.000000
9.240000,5496.000000,9041.000000,-441.000000,-3083.000000,-21900.000000,4766.000000,-57.000000,-197.000000,-29.000000,1.000000
9.250000,15265.000000,4675.000000,-411.000000,-4094.000000,-17276.000000,2090.000000,-57.000000,-197.000000,-29.000000,1.000000
9.260000,17277.000000,1242.000000,5641.000000,-1202.000000,-10027.000000,366.000000,-81.000000,-185.000000,-11.000000,1.000000
9.270000,14953.000000,2232.000000,7693.000000,-284.000000,-744.000000,257.000000,-81.000000,-185.000000,-11.000000,1.000000
9.280000,12641.000000,2617.000000,5285.000000,-666.000000,7994.000000,-28.000000,-98.000000,-190.000000,4.000000,1.000000
9.290000,6412.000000,3148.000000,2293.000000,188.000000,12019.000000,-919.000000,-98.000000,-190.000000,4.000000,1.000000
9.300000,3624.000000,3100.000000,-240.000000,315.000000,14002.000000,-1641.000000,-92.000000,-188.000000,-10.000000,1.000000
9.310000,2215.000000,2578.000000,-1727.000000,362.000000,14764.000000,-1559.000000,-92.000000,-188.000000,-10.000000,1.000000
9.320000,828.000000,2536.000000,-2958.000000,708.000000,14020.000000,-1473.000000,-77.000000,-195.000000,-23.000000,1.000000
9.330000,-365.000000,3151.000000,-3614.000000,1287.000000,13552.000000,-1623.000000,-77.000000,-195.000000,-23.000000,1.000000
9.340000,120.000000,4082.000000,-1358.000000,1353.000000,13615.000000,-2258.000000,-62.000000,-196.000000,-36.000000,1.000000
9.350000,-5105.000000,4741.000000,-3367.000000,604.000000,10760.000000,-2013.000000,-62.000000,-196.000000,-36.000000,1.000000
9.360000,-10796.000000,4905.000000,-3483.000000,122.000000,8000.000000,-3075.000000,-40.000000,-196.000000,-42.000000,1.000000
9.370000,-15790.000000,5826.000000,-2073.000000,-1445.000000,4603.000000,-1169.000000,-40.000000,-196.000000,-42.000000,1.000000
9.380000,-13511.000000,3538.000000,-2111.000000,-2172.000000,-453.000000,415.000000,-17.000000,-199.000000,-43.000000,1.000000
9.390000,-11845.000000,5465.000000,-2521.000000,-921.000000,-4961.000000,508.000000,-17.000000,-199.000000,-43.000000,1.000000
9.400000,-12402.000000,4462.000000,-4015.000000,-1271.000000,-10191.000000,334.000000,-16.000000,-194.000000,-46.000000,1.000000
9.410000,-9326.000000,2248.000000,-9398.000000,7.000000,-15246.000000,969.000000,-16.000000,-194.000000,-46.000000,1.000000
9.420000,-6605.000000,916.000000,-12993.000000,1215.000000,-18938.000000,1518.000000,-34.000000,-194.000000,-46.000000,1.000000
9.430000,-4011.000000,441.000000,-16039.000000,2039.000000,-22069.000000,1983.000000,-34.000000,-194.000000,-46.000000,1.000000
9.440000,-1052.000000,755.000000,-18278.000000,2633.000000,-25251.000000,2481.000000,-60.000000,-188.000000,-28.000000,1.000000
9.450000,2312.000000,1353.000000,-19937.000000,3093.000000,-28855.000000,2871.000000,-60.000000,-188.000000,-28.000000,1.000000
9.460000,6317.000000,2812.000000,-19319.000000,3453.000000,-30975.000000,3286.000000,-85.000000,-189.000000,-3.000000,1.000000
9.470000,12607.000000,4568.000000,-13223.000000,2073.000000,-27669.000000,3506.000000,-85.000000,-189.000000,-3.000000,1.000000
9.480000,22700.000000,9531.000000,-349.000000,-3529.000000,-19758.000000,4688.000000,-90.000000,-182.000000,52.000000,1.000000
9.490000,29829.000000,8322.000000,1450.000000,-7973.000000,-10449.000000,4115.000000,-90.000000,-182.000000,52.000000,1.000000
9.500000,27371.000000,-2972.000000,6083.000000,-1572.000000,-3434.000000,788.000000,-77.000000,-187.000000,65.000000,1.000000
9.510000,17932.000000,-359.000000,3572.000000,439.000000,7324.000000,1099.000000,-77.000000,-187.000000,65.000000,1.000000
9.520000,14566.000000,1510.000000,-2407.000000,113.000000,14795.000000,1123.000000,-77.000000,-191.000000,65.000000,1.000000
9.530000,10205.000000,2408.000000,-6581.000000,801.000000,18643.000000,113.000000,-77.000000,-191.000000,65.000000,1.000000
9.540000,6714.000000,3722.000000,-10320.000000,1349.000000,21359.000000,272.000000,-92.000000,-188.000000,52.000000,1.000000
9.550000,2572.000000,4462.000000,-13281.000000,1862.000000,23625.000000,326.000000,-92.000000,-188.000000,52.000000,1.000000
9.560000,215.000000,5653.000000,-14334.000000,2038.000000,24424.000000,-602.000000,-105.000000,-189.000000,21.000000,1.000000
