AccFullScale=8g, GyrFullScale=2000dps, SamplingRate=100Hz, PacketType=RAW
timeStamp,packetCounter, AccX,AccY,AccZ, GyrX,GyrY,GyrZ, MagX,MagY,MagZ 
  2000,0,-13,3443,-339,-375,-373,-1528,50,88,-146
2010,1,134,3635,-42,-1439,-880,-1539,50,88,-146
2020,2,-476,3358,-945,-2510,-1260,-1534,-58,98,-114
2030,3,-785,1650,-1948,-1847,-655,-1373,-58,98,-114
2040,4,-2548,1124,-581,-1127,-152,-1250,-66,92,-118
2050,5,-1722,2773,4987,220,1100,-1218,-66,92,-118
2060,6,333,2778,6391,-1460,273,-1097,-61,93,-107
2070,7,1179,2182,1605,-3503,-387,-595,-61,93,-107
2080,8,374,99,-2789,-2229,703,292,-67,93,-111
2090,9,243,-988,3602,-1292,1646,1023,-67,93,-111
2100,10,1325,-3262,9705,-4262,1170,2266,-62,94,-104
2110,11,9582,-24953,8472,-6883,-1175,4548,-62,94,-104
2120,12,9949,-22656,375,-7029,-754,6140,-56,100,-102
2130,13,-9668,-14286,-7836,-7065,-2280,3603,-56,100,-102
2140,14,-15983,-3631,-8894,2056,-2170,-4,-50,116,-86
2150,15,-6004,-2697,-485,5174,-972,-2227,-50,116,-86
2160,16,-1203,-6502,3740,4663,3270,-1378,-43,113,-79
2170,17,8941,-9587,4933,5551,-2735,61,-43,113,-79
2180,18,1511,-12449,8483,1375,-1473,425,-48,108,-92
2190,19,2758,-9946,3508,-1991,-1823,232,-48,108,-92
2200,20,3074,-6157,-1104,-3027,-777,-81,-41,109,-99
2210,21,3417,-5668,-4395,-1800,-547,-450,-41,109,-99
2220,22,3841,-6603,-2886,115,-468,-795,-48,108,-88
2230,23,3465,-6730,105,1079,-167,-1028,-48,108,-88
2240,24,2514,-7363,1610,958,-290,-1176,-48,108,-88
2250,25,1238,-7185,1776,559,-469,-1149,-48,108,-88
2260,26,1394,-6688,1155,208,-647,-1041,-49,105,-89
2270,27,1205,-5588,-257,267,-737,-903,-49,105,-89
2280,28,946,-4656,-1152,545,-1114,-767,-62,102,-92
2290,29,217,-4573,-1194,740,-1588,-564,-62,102,-92
2300,30,-1102,-4529,210,888,-1277,-351,-53,107,-91
2310,31,-464,-4153,-1037,1042,-818,-206,-53,107,-91
2320,32,-906,-3610,-556,1913,-755,-28,-62,108,-98
2330,33,-435,-2246,-382,2893,-804,178,-62,108,-98
2340,34,-269,-406,-402,3556,-897,393,-59,105,-91
2350,35,-455,966,108,4319,-741,645,-59,105,-91
2360,36,-703,1652,618,4394,105,942,-58,104,-102
2370,37,-997,2518,426,4133,356,1172,-58,104,-102
2380,38,-888,3390,1144,3730,-1307,1425,-57,99,-111
2390,39,-1566,3546,1788,2694,-776,1483,-57,99,-111
2400,40,-1473,3828,1917,72,-268,1529,-54,98,-112
2410,41,-1089,3767,1035,-1846,65,1451,-54,98,-112
2420,42,254,3406,-477,-2654,807,1355,-56,96,-118
2430,43,768,2649,-1960,-2690,355,1161,-56,96,-118
2440,44,796,2044,-1914,-2051,-647,985,-48,104,-116
2450,45,496,1796,-1115,-968,-732,748,-48,104,-116
2460,46,3978,2416,1201,247,-2979,391,-46,108,-112
2470,47,3371,2012,9111,1069,-1487,241,-46,108,-112
2480,48,-2778,4936,9845,-3435,-2797,212,-52,104,-112
2490,49,-4075,689,2670,-3941,-2437,-961,-52,104,-112
2500,50,-4529,-2026,2378,-4305,-2893,-2440,-50,108,-102
2510,51,-5927,-12686,7445,-4617,-3279,-4707,-50,108,-102
2520,52,-406,-21072,635,-3631,-195,-5916,-58,104,-90
2530,53,12507,-20880,-1577,-2818,-1260,-4140,-58,104,-90
2540,54,10671,-9198,-8199,936,-1619,-411,-62,98,-78
2550,55,7336,-1595,-1212,6594,232,-187,-62,98,-78
2560,56,5689,1144,18243,5917,-109,86,-68,96,-80
2570,57,548,-2629,7931,-3289,384,-304,-68,96,-80
2580,58,1194,-8789,45,-3432,-527,-559,-69,97,-89
2590,59,1675,-11881,-3108,-1311,421,-881,-69,97,-89
2600,60,2794,-14287,-1020,580,1460,-520,-73,97,-83
2610,61,1311,-8516,-2556,1475,1482,79,-73,97,-83
2620,62,113,-5132,-1239,1685,840,295,-76,98,-82
2630,63,-86,-4576,834,1435,550,485,-76,98,-82
2640,64,-330,-5356,5994,-214,1142,731,-75,97,-85
2650,65,-80,-6973,2749,-1826,90,1025,-75,97,-85
2660,66,1488,-7061,-4371,-1930,1072,1183,-72,100,-90
2670,67,-192,-7254,-1645,-37,630,1118,-72,100,-90
2680,68,-643,-5743,-1327,1276,782,824,-76,96,-88
2690,69,-294,-4979,-201,1753,857,463,-76,96,-88
2700,70,155,-4130,57,1580,806,281,-69,97,-85
2710,71,-146,-3932,189,1510,604,111,-69,97,-85
2720,72,-364,-3220,260,1396,435,-78,-65,99,-95
2730,73,-429,-1654,625,1567,445,-235,-65,99,-95
2740,74,-236,-706,734,1914,604,-402,-67,99,-99
2750,75,-1018,485,1032,1813,385,-589,-67,99,-99
2760,76,-883,1419,296,1109,203,-942,-64,96,-104
2770,77,-823,2375,-647,930,-15,-1300,-64,96,-104
2780,78,-566,3552,-426,970,-59,-1546,-71,93,-105
2790,79,-670,4319,-155,606,-508,-1819,-71,93,-105
2800,80,-270,4678,164,-683,-899,-1991,-69,87,-109
2810,81,-666,4800,275,-2571,-901,-2077,-69,87,-109
2820,82,-674,2711,-1604,-2579,-724,-1903,-76,94,-106
2830,83,-927,1799,-2016,-1766,-400,-1683,-76,94,-106
2840,84,-1035,1085,-1284,-1046,-129,-1410,-85,85,-105
2850,85,-7595,522,5625,1182,2361,-1024,-85,85,-105
2860,86,-742,4742,13667,632,410,-1056,-84,86,-100
2870,87,4024,3889,8490,-4797,1510,-813,-84,86,-100
2880,88,5138,593,-362,-4976,499,332,-85,83,-101
2890,89,7166,-3705,5090,-2650,3454,2059,-85,83,-101
2900,90,13424,-11617,12071,-7477,2702,4841,-81,85,-91
2910,91,7609,-18994,-2724,-5612,250,6583,-81,85,-91
2920,92,-1785,-19917,107,-4581,853,5106,-76,94,-88
2930,93,-7880,-15116,-5663,-4822,1304,2102,-76,94,-88
2940,94,-15111,-3901,-4927,2444,-706,-906,-66,104,-76
2950,95,-6021,-3261,82,5255,758,-2028,-66,104,-76
2960,96,-2089,-4934,3075,5507,3275,-1323,-67,107,-81
2970,97,8829,-10765,-2818,5652,458,-8,-67,107,-81
2980,98,735,-10232,6700,1595,-133,679,-66,100,-100
2990,99,1540,-10020,4070,-1268,-809,415,-66,100,-100
3000,100,1229,-7118,1461,-2583,-521,-190,-67,97,-99
3010,101,2103,-5526,-2731,-2516,102,-629,-67,97,-99
3020,102,2481,-5977,-3267,-466,317,-997,-64,104,-96
3030,103,2577,-6444,-675,958,400,-1154,-64,104,-96
3040,104,1862,-6979,927,1238,138,-1235,-69,99,-91
3050,105,1143,-6843,1297,1185,-183,-1177,-69,99,-91
3060,106,845,-6453,1193,1055,-377,-983,-67,101,-91
3070,107,626,-5206,-169,788,-743,-813,-67,101,-91
3080,108,-88,-4293,-978,869,-1189,-599,-67,97,-99
3090,109,-1713,-3890,-264,958,-440,-346,-67,97,-99
3100,110,-916,-3735,-683,1033,-114,-152,-75,95,-95
3110,111,-1237,-3092,-241,1691,-346,84,-75,95,-95
3120,112,-823,-2265,129,2504,-602,270,-74,94,-100
3130,113,-401,-737,717,2976,-686,562,-74,94,-100
3140,114,-580,429,866,3139,-153,870,-69,91,-101
3150,115,-977,1370,815,3109,265,1124,-69,91,-101
3160,116,-887,2225,656,2846,475,1372,-71,87,-111
3170,117,-1132,3028,351,2429,161,1677,-71,87,-111
3180,118,-1877,3454,572,1643,-574,1857,-69,91,-115
3190,119,-1476,3621,1127,849,-126,1865,-69,91,-115
3200,120,-944,3912,291,-365,789,1795,-67,93,-119
3210,121,471,3606,-151,-1325,489,1553,-67,93,-119
3220,122,642,2921,-488,-2058,200,1352,-67,93,-121
3230,123,396,2229,-602,-1924,-254,1119,-67,93,-121
3240,124,4134,3024,1829,-628,-2833,747,-57,97,-115
3250,125,926,2358,14686,76,-1638,669,-57,97,-115
3260,126,-3915,4922,5537,-4496,-1542,390,-62,100,-114
3270,127,-4701,1090,-147,-4580,-1739,-916,-62,100,-114
3280,128,-2128,-925,-359,-4337,-1967,-2378,-60,102,-100
3290,129,2184,-4582,2064,-3766,-2707,-3572,-60,102,-100
3300,130,318,-13918,7557,-2762,-2783,-4721,-64,108,-90
3310,131,5596,-22581,2354,-2703,2718,-4838,-64,108,-90
3320,132,22638,-20778,-6,-3755,-1075,-2436,-72,100,-84
3330,133,6201,-5143,-5238,2290,256,-332,-72,100,-84
3340,134,4459,-3243,1481,6013,1671,-494,-81,93,-79
3350,135,1630,-4233,17444,2826,805,-618,-81,93,-79
3360,136,-1436,-9065,3367,-3520,2208,-1042,-87,87,-91
3370,137,3210,-11166,-933,-3706,1687,-961,-87,87,-91
3380,138,1284,-12591,-2460,-1288,1666,-471,-85,91,-87
3390,139,1226,-10479,-3961,606,2044,32,-85,91,-87
3400,140,-345,-6864,-2691,1460,1666,226,-84,88,-88
3410,141,-332,-5421,-779,1634,1189,401,-84,88,-88
3420,142,-681,-5134,1071,1501,994,486,-77,93,-91
3430,143,-1716,-4651,1044,769,1394,654,-77,93,-91
3440,144,-202,-5419,2171,-18,858,822,-81,89,-99
3450,145,-1576,-5619,2157,-1008,722,934,-81,89,-99
3460,146,-1738,-6174,887,-1233,1121,820,-83,91,-97
3470,147,-1815,-6366,-261,-721,1132,607,-83,91,-97
3480,148,-1313,-5789,-1150,-17,1011,361,-75,97,-97
3490,149,-996,-5545,-1084,676,722,117,-75,97,-97
3500,150,-566,-4291,-986,1557,436,-55,-74,92,-100
3510,151,82,-2397,-598,2486,327,-153,-74,92,-100
3520,152,333,-890,202,3004,365,-235,-80,94,-106
3530,153,226,623,904,2928,1127,-348,-80,94,-106
3540,154,-565,1652,1946,2352,137,-703,-73,91,-111
3550,155,-270,2541,889,1097,67,-956,-73,91,-111
3560,156,-183,3536,-239,653,-33,-1259,-73,87,-119
3570,157,423,4412,-1198,597,-365,-1584,-73,87,-119
3580,158,-49,5103,-813,66,-754,-1849,-77,87,-119
3590,159,-288,5061,-45,-1397,-879,-2004,-77,87,-119
3600,160,-201,3752,-621,-2743,-914,-1901,-83,81,-115
3610,161,-1282,2628,-1387,-2351,-563,-1676,-83,81,-115
3620,162,-962,1959,-1792,-1825,141,-1408,-89,77,-113
3630,163,-3664,1398,230,-273,1663,-1094,-89,77,-113
3640,164,-3365,3039,9099,2972,1510,-1147,-87,79,-109
3650,165,1457,5677,10457,-3301,1700,-1358,-87,79,-109
3660,166,4629,2300,936,-6959,803,-273,-95,79,-107
3670,167,5385,-2431,-3399,-4963,1849,1137,-95,79,-107
3680,168,8220,-7247,8499,-3223,4562,3073,-90,82,-104
3690,169,13624,-18924,5293,-6979,1432,5818,-90,82,-104
3700,170,3565,-23104,-1958,-5231,-1169,5163,-85,89,-105
3710,171,-7618,-18519,-2788,-5432,-425,2917,-85,89,-105
3720,172,-13543,-3168,-10944,-571,454,1462,-72,102,-92
3730,173,-7029,-2020,-2799,3522,1006,-1339,-72,102,-92
3740,174,-3571,-2591,1290,5953,1493,-1691,-64,102,-92
3750,175,556,-7733,4229,5450,3751,-764,-64,102,-92
3760,176,6972,-12527,11960,3651,-700,288,-66,98,-104
3770,177,2066,-11363,5553,-841,-528,264,-66,98,-104
3780,178,1114,-7111,1425,-1961,-808,-311,-66,100,-110
3790,179,1731,-6276,-1367,-2536,-186,-680,-66,100,-110
3800,180,2260,-7067,-2457,-1772,154,-948,-68,96,-110
3810,181,1868,-7062,-1962,-477,397,-1075,-68,96,-110
3820,182,890,-7333,-799,463,358,-1225,-67,97,-101
3830,183,321,-7493,223,1052,-136,-1409,-67,97,-101
3840,184,-149,-7269,770,1303,-256,-1422,-70,96,-108
3850,185,860,-6233,473,1419,-397,-1343,-70,96,-108
3860,186,1056,-4704,-241,1284,-411,-1135,-74,94,-110
3870,187,690,-4369,-162,1084,-539,-820,-74,94,-110
3880,188,-194,-4285,-232,928,-7,-368,-75,87,-111
3890,189,687,-3963,-105,1120,-148,-11,-75,87,-111
3900,190,607,-3935,363,1204,-175,322,-77,89,-109
3910,191,459,-3196,353,1373,-100,650,-77,89,-109
3920,192,41,-2301,47,1889,-264,922,-84,88,-110
3930,193,-586,-1072,-158,2761,-679,1258,-84,88,-110
3940,194,-1356,617,140,3495,-938,1553,-73,79,-113
3950,195,-2044,2081,544,3759,-202,1775,-73,79,-113
3960,196,-2505,2918,601,3856,605,1876,-73,87,-119
3970,197,-1903,3659,646,3513,913,1933,-73,87,-119
3980,198,-1373,4121,1016,2826,583,1944,-69,87,-131
3990,199,-1242,4812,610,544,497,1764,-69,87,-131
4000,200,-391,4128,320,-1441,475,1577,-69,85,-131
4010,201,-9,3088,-463,-2294,356,1379,-69,85,-131
4020,202,98,2382,-1104,-2237,186,1150,-60,94,-136
4030,203,28,1954,-946,-1704,-79,832,-60,94,-136
4040,204,773,2066,573,-1126,684,411,-64,92,-124
4050,205,8709,1549,13420,-243,-4728,-199,-64,92,-124
4060,206,1065,3938,9995,-2203,-2122,153,-58,98,-126
4070,207,-3025,1695,4389,-3341,-2146,-750,-58,98,-126
4080,208,-1707,-960,2855,-4572,-1778,-2063,-65,103,-117
4090,209,-3620,-8562,6737,-4075,-2507,-3716,-65,103,-117
4100,210,-2170,-22426,9273,-3679,1431,-6051,-66,100,-108
4110,211,15303,-23855,1218,-5256,-422,-4381,-66,100,-108
4120,212,12783,-11875,-7702,-138,-231,-684,-80,96,-96
4130,213,5105,-2282,-2708,4874,1743,-387,-80,96,-96
4140,214,1917,-2302,3327,5792,2060,-214,-85,91,-95
4150,215,-271,-5280,11397,445,1528,-474,-85,91,-95
4160,216,318,-10509,3357,-3516,937,-666,-83,91,-107
4170,217,3015,-14618,-1904,-3122,1929,-265,-83,91,-107
4180,218,941,-10431,-5423,-2183,1137,445,-81,87,-105
4190,219,-2756,-5858,-5032,-657,557,586,-81,87,-105
4200,220,-1537,-5010,-3886,1744,110,383,-81,87,-107
4210,221,-2768,-4453,540,3056,263,550,-81,87,-107
4220,222,-393,-5474,517,2870,1652,785,-81,85,-109
4230,223,1523,-6302,10578,1479,1608,1340,-81,85,-109
4240,224,-245,-5930,4290,-3058,-552,1393,-76,84,-114
4250,225,-22,-6386,-135,-2372,707,1263,-76,84,-114
4260,226,163,-5991,-1820,-1344,820,1012,-72,92,-116
4270,227,344,-5258,-2562,-27,715,782,-72,92,-116
4280,228,487,-4375,-2053,1106,607,628,-66,94,-108
4290,229,346,-3418,-1430,2154,581,461,-66,94,-108
4300,230,396,-1871,-771,3174,669,321,-72,94,-110
4310,231,146,-563,-211,3931,782,164,-72,94,-110
4320,232,-963,1286,3921,4413,1812,-111,-66,94,-120
4330,233,-262,2090,2257,3530,507,-552,-66,94,-120
4340,234,-450,3161,763,2078,442,-996,-62,86,-136
4350,235,-393,4252,59,981,117,-1406,-62,86,-136
4360,236,554,4501,-239,-134,-315,-1749,-67,83,-133
4370,237,-97,5076,-297,-1462,-902,-2030,-67,83,-133
4380,238,-526,4552,-348,-2964,-1364,-2123,-70,84,-132
4390,239,-1014,3015,-1147,-3536,-1493,-1917,-70,84,-132
4400,240,-2134,2052,-1731,-2762,-646,-1733,-76,82,-126
4410,241,-1445,1599,-1786,-1883,-200,-1392,-76,82,-126
4420,242,-2648,989,-177,-739,510,-1000,-78,82,-118
4430,243,-4610,1464,7258,3561,3437,-665,-78,82,-118
4440,244,-475,5737,12423,-375,959,-861,-77,75,-121
4450,245,7011,2625,5472,-6433,1355,-87,-77,75,-121
4460,246,4939,-1874,2090,-6449,53,1335,-76,78,-126
4470,247,6239,-6555,-88,-4491,2301,3230,-76,78,-126
4480,248,13065,-20055,9242,-4924,1372,5796,-78,88,-116
4490,249,5678,-20287,-976,-4008,-1406,5843,-78,88,-116
4500,250,-9271,-21254,2935,-6885,-891,3405,-63,101,-113
4510,251,-14292,-6460,-9187,-3024,-321,1439,-63,101,-113
4520,252,-8411,-2197,-2480,2138,-731,-1110,-57,111,-97
4530,253,-3623,-4047,331,3938,894,-1177,-57,111,-97
4540,254,1240,-10071,4394,4114,2558,-553,-57,111,-93
4550,255,6891,-14007,7535,1400,-1520,127,-57,111,-93
4560,0,2543,-10584,1281,-833,-1507,-152,-56,108,-110
4570,1,3035,-6545,-3826,-1096,-1047,-542,-56,108,-110
4580,2,3801,-6413,-4247,-233,-132,-1151,-57,107,-105
4590,3,3626,-6164,-1049,1427,348,-1355,-57,107,-105
4600,4,4508,-6101,173,1802,536,-1490,-61,99,-109
4610,5,1960,-6782,1756,1408,85,-1466,-61,99,-109
4620,6,1874,-7462,2066,615,-292,-1492,-60,96,-110
4630,7,1058,-7260,1115,275,-457,-1313,-60,96,-110
4640,8,1353,-6263,-384,380,-710,-958,-65,103,-111
4650,9,452,-6119,228,520,-774,-485,-65,103,-111
4660,10,-306,-5365,-252,449,113,-6,-65,91,-111
4670,11,90,-5176,-642,782,235,482,-65,91,-111
4680,12,114,-4428,-779,1599,121,797,-73,101,-117
4690,13,-139,-2983,-352,2239,176,1115,-73,101,-117
4700,14,-795,-891,-620,2837,-608,1429,-63,95,-115
4710,15,-2331,898,-54,3008,-544,1656,-63,95,-115
4720,16,-1738,2338,-95,3158,85,1794,-64,96,-120
4730,17,-1727,3146,-169,3394,757,2004,-64,96,-120
4740,18,-1463,3968,336,3128,781,2167,-62,94,-128
4750,19,-1429,4451,816,2006,1018,2263,-62,94,-128
4760,20,-1147,4314,856,814,832,2174,-63,91,-133
4770,21,-551,4224,663,-26,769,1983,-63,91,-133
4780,22,156,3737,325,-764,729,1648,-48,92,-138
4790,23,914,2833,55,-1421,769,1408,-48,92,-138
4800,24,799,2186,-398,-1625,260,1106,-52,98,-134
4810,25,562,1854,-211,-1388,-205,787,-52,98,-134
4820,26,639,1706,755,-1142,35,398,-38,108,-134
4830,27,5944,2406,2346,-286,-4859,-166,-38,108,-134
4840,28,4058,1489,10775,-634,-2741,-112,-44,106,-130
4850,29,-8093,1906,7872,-3404,-2522,-954,-44,106,-130
4860,30,-6429,-586,3256,-5000,-1930,-2923,-48,106,-126
4870,31,-6128,-5927,2430,-4746,-2137,-4536,-48,106,-126
4880,32,4104,-13882,-1524,-4891,-1289,-6070,-57,105,-109
4890,33,2002,-14401,-2986,-2318,-1088,-4357,-57,105,-109
4900,34,16761,-23395,1624,-1578,-1146,-825,-70,102,-104
4910,35,7668,-7474,-2726,2755,-281,262,-70,102,-104
4920,36,3165,-2614,719,5488,644,451,-74,100,-100
4930,37,2905,-2428,4348,4667,-2490,30,-74,100,-100
4940,38,-3700,-5222,7820,-1797,-371,-434,-78,102,-108
4950,39,-2711,-7708,1847,-3618,-1303,-1101,-78,102,-108
4960,40,1416,-10734,-1488,-3254,636,-873,-77,99,-109
4970,41,2630,-13895,-3604,-758,479,33,-77,99,-109
4980,42,2444,-8868,-3958,1128,14,641,-71,103,-99
4990,43,2075,-6672,-1357,1937,-275,752,-71,103,-99
5000,44,856,-5920,1008,1802,3,694,-71,101,-105
5010,45,3010,-7210,2319,1010,-42,522,-71,101,-105
5020,46,2050,-7165,1881,-449,112,519,-72,98,-104
5030,47,2456,-7417,96,-1261,264,670,-72,98,-104
5040,48,2087,-6361,-2422,-292,512,603,-71,101,-103
5050,49,1146,-5158,-2352,1556,660,380,-71,101,-103
5060,50,484,-4325,-587,2446,883,180,-71,101,-109
5070,51,-449,-4057,566,2251,881,84,-71,101,-109
5080,52,-1919,-3708,921,1567,748,-66,-71,99,-115
5090,53,-2121,-3348,466,1237,562,-299,-71,99,-115
5100,54,-2419,-2539,131,1635,262,-518,-73,99,-119
5110,55,-2178,-1533,200,2409,269,-974,-73,99,-119
5120,56,-1497,39,2124,3020,861,-1256,-77,97,-117
5130,57,-192,1823,1559,2884,148,-1552,-77,97,-117
5140,58,-246,2654,1681,1839,205,-1788,-70,94,-130
5150,59,-1277,4155,892,667,19,-2071,-70,94,-130
5160,60,507,4225,854,-874,-272,-2174,-78,84,-130
5170,61,168,4916,82,-2754,-563,-2134,-78,84,-130
5180,62,515,3729,-902,-3001,-1564,-1971,-81,79,-133
5190,63,-880,2501,-2581,-2246,-380,-1708,-81,79,-133
5200,64,-579,1799,-2179,-1458,-109,-1381,-90,82,-126
5210,65,-314,1426,-1515,-764,41,-1080,-90,82,-126
5220,66,-137,1384,-695,-225,150,-807,-93,87,-119
5230,67,-340,1189,27,-170,825,-559,-93,87,-119
5240,68,-516,619,545,-378,805,-336,-88,84,-120
5250,69,-3063,-538,6772,-932,1095,-178,-88,84,-120
5260,70,-11716,2454,10288,-1323,2080,296,-86,80,-126
5270,71,3052,2936,9957,-1171,3296,-362,-86,80,-126
5280,72,9653,-3920,12895,-7306,3153,1701,-96,76,-124
5290,73,26620,-19511,-3984,-8030,3059,5140,-96,76,-124
5300,74,7463,-15723,-5936,-3403,1059,5774,-79,93,-119
5310,75,-5250,-16386,-1216,-1432,1376,3415,-79,93,-119
5320,76,-10654,-11529,-954,-1194,913,383,-69,105,-113
5330,77,-9036,-6305,-2167,520,386,-1629,-69,105,-113
5340,78,-2712,-1132,-1789,2704,685,-1452,-73,105,-111
5350,79,-1799,-4374,1990,4241,1581,-1066,-73,105,-111
5360,80,2558,-10197,4348,2747,3940,-260,-70,100,-114
5370,81,4375,-11507,2595,418,1314,263,-70,100,-114
5380,82,2283,-12259,3248,-1108,271,-22,-68,102,-124
5390,83,2537,-7091,-943,-1767,837,-516,-68,102,-124
5400,84,2916,-6733,-2181,-1152,1272,-1044,-67,99,-127
5410,85,2715,-7332,-937,338,1488,-1537,-67,99,-127
5420,86,1279,-8136,653,934,1252,-1545,-73,101,-121
5430,87,-150,-8795,995,608,751,-1447,-73,101,-121
5440,88,-2087,-7889,-106,703,50,-1352,-68,96,-124
5450,89,-1629,-6244,-770,1271,-465,-1227,-68,96,-124
5460,90,-2586,-4815,-480,1696,19,-1055,-76,90,-132
5470,91,-1920,-3535,-185,1829,178,-948,-76,90,-132
5480,92,-1011,-3429,510,1361,124,-688,-74,88,-132
5490,93,-644,-2721,207,1089,-146,-365,-74,88,-132
5500,94,-277,-2746,189,1243,-300,-2,-79,83,-135
5510,95,-280,-1910,271,1720,-525,326,-79,83,-135
5520,96,-86,-812,341,1922,-678,658,-79,83,-133
5530,97,-302,304,142,2209,-618,993,-79,83,-133
5540,98,-681,1544,-119,2743,-312,1352,-78,74,-136
5550,99,-1027,2474,-115,3182,-76,1655,-78,74,-136
5560,100,-1104,3134,137,3304,-10,1916,-78,76,-138
5570,101,-611,3539,591,3045,107,2077,-78,76,-138
5580,102,-837,3975,359,1491,1174,2199,-72,72,-144
5590,103,-59,3931,539,310,1148,2045,-72,72,-144
5600,104,757,3211,1039,-834,731,1848,-70,68,-150
5610,105,192,2770,60,-1842,761,1553,-70,68,-150
5620,106,435,2357,-331,-2244,877,1222,-64,72,-148
5630,107,408,2044,-522,-2682,697,830,-64,72,-148
5640,108,1309,1824,-337,-2788,1149,421,-65,79,-143
5650,109,9333,1646,7297,-736,-2318,16,-65,79,-143
5660,110,4279,1926,8060,-515,-2166,158,-59,89,-141
5670,111,-6682,2518,7718,-3988,-2414,-707,-59,89,-141
5680,112,-3567,-1425,3568,-5550,-1636,-2461,-63,89,-135
5690,113,-3084,-8823,4547,-4236,-2575,-4327,-63,89,-135
5700,114,-3013,-23255,11017,-4118,2152,-6900,-64,94,-120
5710,115,17869,-24560,-499,-6926,391,-4636,-64,94,-120
5720,116,14471,-12177,-9496,-979,-431,-416,-79,85,-115
5730,117,6152,-2168,-3979,5729,1965,-122,-79,85,-115
5740,118,1719,-2737,2269,7095,2366,76,-81,81,-111
5750,119,-473,-6799,24260,4457,638,-432,-81,81,-111
5760,120,491,-10183,4428,-4829,1866,-880,-78,78,-128
5770,121,5816,-17441,1808,-4513,3394,242,-78,78,-128
5780,122,1106,-7985,-6391,-4486,746,1578,-81,81,-127
5790,123,-4192,-3573,-7658,-2971,66,1805,-81,81,-127
5800,124,-3812,-4510,-6462,486,713,1069,-79,89,-121
5810,125,-4509,-4625,-1232,3173,464,860,-79,89,-121
5820,126,-3066,-5401,1092,3855,1138,918,-78,84,-120
5830,127,-1277,-6270,2431,3603,1635,1110,-78,84,-120
5840,128,-1442,-6527,10051,3222,1046,1214,-70,78,-128
5850,129,-1251,-5741,3561,-1811,599,933,-70,78,-128
5860,130,-321,-6584,696,-2265,687,939,-66,78,-134
5870,131,328,-5131,-1376,-1827,677,788,-66,78,-134
5880,132,700,-3463,-2701,-608,462,691,-64,86,-126
5890,133,803,-2427,-2134,979,345,483,-64,86,-126
5900,134,994,-814,-1827,2431,536,394,-63,83,-135
5910,135,355,839,-1431,3573,649,223,-63,83,-135
5920,136,118,1694,-815,4298,653,-173,-61,81,-135
5930,137,152,2696,-194,4631,1050,-568,-61,81,-135
5940,138,677,4230,1362,4347,255,-963,-60,68,-144
5950,139,948,4868,1454,2834,77,-1373,-60,68,-144
5960,140,291,5839,1025,-405,-296,-1658,-60,62,-150
5970,141,13,5341,-6,-3087,-618,-2019,-60,62,-150
5980,142,540,3805,-1569,-4089,-1093,-2070,-64,60,-146
5990,143,-1936,2515,-587,-3510,-1339,-1767,-64,60,-146
6000,144,-286,1686,-2182,-2251,-116,-1582,-66,68,-150
6010,145,-508,1442,-1888,-1281,495,-1162,-66,68,-150
6020,146,-537,1321,-1019,-541,470,-845,-73,63,-141
6030,147,-884,915,2691,-380,816,-507,-73,63,-141
6040,148,-5902,-356,5107,-803,4646,-120,-70,58,-142
6050,149,-2038,2283,9948,33,1700,-270,-70,58,-142
6060,150,2324,1111,8891,-3151,2538,106,-65,61,-147
6070,151,9523,-3754,6569,-7694,1981,1459,-65,61,-147
6080,152,8177,-13600,1207,-7266,2708,3950,-66,68,-142
6090,153,10054,-22164,-90,-2325,308,6106,-66,68,-142
6100,154,-2780,-16904,1149,-3730,-73,5423,-56,84,-132
6110,155,-11282,-14063,1268,-6028,755,1741,-56,84,-132
6120,156,-11907,-5868,-5024,-55,-2727,-28,-41,93,-129
6130,157,-3764,-2362,-1456,1689,-1078,-715,-41,93,-129
6140,158,-2476,-5289,1229,1972,608,-592,-43,99,-125
6150,159,1042,-11507,3767,341,1604,66,-43,99,-125
6160,160,5876,-12639,-1602,-1155,-1541,561,-42,98,-126
6170,161,1195,-11592,-1672,-1029,-2281,130,-42,98,-126
6180,162,1437,-7648,-3599,-612,-765,-160,-46,100,-128
6190,163,2153,-6103,-4764,817,-361,-717,-46,100,-128
6200,164,1970,-5395,-1891,2287,-200,-1250,-43,93,-125
6210,165,2474,-5952,887,2322,263,-1514,-43,93,-125
6220,166,2318,-6611,1854,1787,-355,-1548,-50,88,-124
6230,167,1309,-6548,1652,1187,-505,-1538,-50,88,-124
6240,168,1006,-6916,1956,522,-698,-1386,-51,85,-129
6250,169,970,-5850,740,100,-931,-1164,-51,85,-129
6260,170,1011,-6032,-261,-1,-893,-762,-54,86,-132
6270,171,600,-5698,-1116,423,-1066,-326,-54,86,-132
6280,172,167,-5101,-938,1004,-542,25,-58,84,-130
6290,173,-14,-4831,-647,1816,-465,311,-58,84,-130
6300,174,-180,-3435,-780,2806,-623,509,-57,83,-131
6310,175,-800,-1689,-570,3614,-976,733,-57,83,-131
6320,176,-1533,102,218,3657,-766,964,-58,76,-138
6330,177,-1439,1573,180,3747,-261,1183,-58,76,-138
6340,178,-1079,2413,171,3779,437,1546,-57,69,-137
6350,179,-1387,3362,-73,3711,338,1896,-57,69,-137
6360,180,-1784,4032,234,3112,8,2119,-58,66,-146
6370,181,-2116,4616,523,1748,-103,2157,-58,66,-146
6380,182,-1246,4265,827,539,-59,1959,-52,62,-154
6390,183,-253,3896,129,-261,224,1719,-52,62,-154
6400,184,1068,3405,0,-670,442,1467,-45,65,-155
6410,185,1184,3016,-644,-940,14,1215,-45,65,-155
6420,186,3618,3437,-2027,-480,-977,860,-40,66,-148
6430,187,6125,1616,10213,1138,-2789,683,-40,66,-148
6440,188,-3184,5764,10298,-2442,-2044,914,-44,74,-154
6450,189,-4645,2509,2271,-4114,-2292,-331,-44,74,-154
6460,190,-3458,31,266,-4601,-2240,-1695,-47,73,-137
6470,191,1005,-3341,1718,-4481,-2316,-3168,-47,73,-137
6480,192,-2282,-13992,6969,-3956,-2365,-4595,-58,82,-134
6490,193,4575,-27867,6247,-3257,1736,-5058,-58,82,-134
6500,194,31038,-23263,-4813,-7307,-1158,-2352,-64,74,-126
6510,195,6681,-5420,-7330,295,-356,-113,-64,74,-126
6520,196,3453,-2851,-2471,4834,1240,-326,-70,80,-118
6530,197,1252,-4400,1124,5404,1124,-374,-70,80,-118
6540,198,790,-7644,4808,4148,916,-669,-69,75,-125
6550,199,2057,-10240,6531,1163,883,-867,-69,75,-125
6560,200,1930,-11576,3667,-1187,1520,-256,-73,69,-131
6570,201,2435,-9254,-1963,-2693,2020,433,-73,69,-131
6580,202,-1852,-4760,-2790,-2571,28,958,-65,67,-131
6590,203,-1773,-4323,-3913,-1352,850,699,-65,67,-131
6600,204,-1461,-4960,-2129,415,215,606,-66,76,-130
6610,205,-997,-5413,5,1085,-202,712,-66,76,-130
6620,206,-890,-6255,1563,852,906,852,-65,79,-125
6630,207,3012,-6595,-4232,747,1435,1010,-65,79,-125
6640,208,159,-5842,-900,1292,1136,998,-65,77,-131
6650,209,143,-5131,704,1455,942,766,-65,77,-131
6660,210,267,-4503,504,1037,828,588,-58,74,-138
6670,211,-294,-3647,331,756,677,481,-58,74,-138
6680,212,-544,-3069,199,844,639,288,-55,71,-137
6690,213,-286,-2207,-22,1173,605,126,-55,71,-137
6700,214,-365,-699,-389,1643,550,69,-55,69,-143
6710,215,-526,766,-620,2354,542,-100,-55,69,-143
6720,216,-885,1727,-461,2968,551,-577,-50,68,-144
6730,217,-627,2859,-1193,3702,1225,-1082,-50,68,-144
6740,218,-745,4076,1175,3326,114,-1578,-57,63,-147
6750,219,-342,4808,636,2181,-226,-1725,-57,63,-147
6760,220,-100,5025,1037,-105,-635,-1990,-52,54,-158
6770,221,-286,4820,651,-3363,-1327,-2033,-52,54,-158
6780,222,339,3157,-1081,-5252,-1762,-1934,-58,56,-154
6790,223,-1252,2098,-646,-4217,-894,-1466,-58,56,-154
6800,224,94,1276,-2756,-2482,-607,-1243,-63,61,-145
6810,225,-3197,686,43,-330,1362,-656,-63,61,-145
6820,226,-4461,2245,10824,4780,4128,-688,-68,66,-142
6830,227,-352,5264,11989,724,2414,-705,-68,66,-142
6840,228,4131,2436,4474,-5781,1397,345,-64,58,-148
6850,229,4136,-2328,4692,-10093,1814,2137,-64,58,-148
6860,230,8663,-15391,1791,-6697,2986,4502,-62,62,-142
6870,231,10557,-28865,2387,-4815,-1620,6233,-62,62,-142
6880,232,-8560,-21273,-477,-6941,-855,4274,-53,83,-135
6890,233,-13358,-5250,-11658,-3917,-1685,1482,-53,83,-135
6900,234,-13264,-3722,-3995,2484,-2238,-952,-43,97,-125
6910,235,-5310,-2137,681,3959,450,-1591,-43,97,-125
6920,236,-1444,-6756,3255,3497,2891,-1058,-47,99,-123
6930,237,5520,-11290,-238,3249,3604,-219,-47,99,-123
6940,238,1853,-13611,3284,756,-1032,868,-45,87,-131
6950,239,2603,-8881,1331,-1451,-1707,190,-45,87,-131
6960,240,2402,-6439,-1311,-2094,-1285,-42,-43,93,-133
6970,241,2654,-4953,-4292,-1057,-444,-591,-43,93,-133
6980,242,3467,-5767,-2024,848,-251,-926,-46,90,-126
6990,243,2844,-5967,627,1404,-138,-1070,-46,90,-126
7000,244,2658,-6337,1385,919,-174,-1138,-45,89,-127
7010,245,1375,-6400,1428,407,-552,-1059,-45,89,-127
7020,246,942,-6663,696,275,-667,-783,-51,95,-125
7030,247,795,-5970,-398,245,-693,-477,-51,95,-125
7040,248,194,-5316,-1946,717,-1487,-207,-51,91,-127
7050,249,-1180,-4450,-1876,1304,-351,96,-51,91,-127
7060,250,-1431,-3103,-1962,2297,-405,67,-56,88,-126
7070,251,-940,-2344,-1115,2992,-404,143,-56,88,-126
7080,252,-754,-707,-752,3740,-391,358,-50,82,-134
7090,253,-1062,821,-316,4579,372,723,-50,82,-134
7100,254,-1035,1688,-254,4838,802,963,-57,81,-143
7110,255,-480,2363,-107,5051,842,1287,-57,81,-143
7120,0,-450,3720,281,5174,497,1673,-54,72,-154
7130,1,-1081,4883,2811,4564,-2105,1802,-54,72,-154
7140,2,-1444,4624,4961,1430,-147,1786,-53,65,-159
7150,3,-1152,4246,1796,-1909,834,1704,-53,65,-159
7160,4,504,3760,-543,-3066,1121,1499,-47,65,-153
7170,5,1235,2884,-2122,-3005,450,1302,-47,65,-153
7180,6,856,1936,-1670,-2073,-483,1249,-37,69,-155
7190,7,-315,1749,-867,-1016,-748,1083,-37,69,-155
7200,8,488,1911,931,-462,553,702,-41,77,-153
7210,9,7132,1806,5261,-13,-4734,41,-41,77,-153
7220,10,-828,3361,12801,-503,-2370,510,-35,77,-147
7230,11,-5307,1628,5142,-2799,-2783,-576,-35,77,-147
7240,12,-4500,-584,3157,-4257,-2287,-2105,-44,78,-144
7250,13,-4468,-6787,5927,-4857,-2698,-3870,-44,78,-144
7260,14,-3427,-17735,6718,-4599,-1,-5876,-50,84,-136
7270,15,9916,-25399,3232,-5475,-726,-4940,-50,84,-136
7280,16,12268,-14781,-3484,-3466,-1195,201,-63,93,-125
7290,17,6615,-2501,-4792,2441,1533,362,-63,93,-125
7300,18,4018,-2287,-118,4734,1805,174,-73,91,-117
7310,19,34,-3444,2483,3744,1209,-291,-73,91,-117
7320,20,140,-9092,5418,1011,850,-747,-66,80,-126
7330,21,2174,-11310,4384,-1813,647,-1004,-66,80,-126
7340,22,3431,-15011,1734,-2614,1700,-237,-67,81,-137
7350,23,989,-7243,-3974,-3181,971,641,-67,81,-137
7360,24,-3068,-4511,-4026,-2155,-29,943,-65,77,-125
7370,25,-1983,-5188,-4134,-231,715,671,-65,77,-125
7380,26,-2144,-5272,-1275,1416,72,789,-62,88,-126
7390,27,-2505,-6128,1117,1211,937,852,-62,88,-126
7400,28,-589,-6632,1250,568,1831,864,-58,82,-126
7410,29,-854,-6895,1643,938,73,822,-58,82,-126
7420,30,-655,-6418,734,872,789,518,-58,92,-128
7430,31,164,-5267,117,666,686,366,-58,92,-128
7440,32,496,-4114,-547,727,696,193,-54,86,-134
7450,33,273,-2507,-1270,1372,397,24,-54,86,-134
7460,34,264,-1232,-1126,2139,406,10,-53,81,-139
7470,35,-75,113,-1003,2943,558,-62,-53,81,-139
7480,36,-190,1584,-880,3492,570,-335,-52,78,-140
7490,37,29,2523,-822,4088,752,-717,-52,78,-140
7500,38,955,4082,35,4702,872,-1064,-53,71,-147
7510,39,891,5775,747,3358,160,-1403,-53,71,-147
7520,40,379,6495,1348,523,-206,-1833,-58,64,-160
7530,41,13,6692,940,-3655,-697,-2030,-58,64,-160
7540,42,767,4454,-1314,-5274,-1404,-2045,-54,58,-160
7550,43,-981,2721,-2681,-4592,-1972,-1724,-54,58,-160
7560,44,-1303,1922,-1750,-3130,-1035,-1420,-60,66,-150
7570,45,-999,1389,-2138,-2065,264,-1130,-60,66,-150
7580,46,-2422,126,695,-1408,651,-742,-67,67,-139
7590,47,-4202,2391,-4396,3208,5258,-922,-67,67,-139
7600,48,1284,5122,14733,1437,2819,-1363,-68,64,-142
7610,49,3109,816,3658,-6503,1551,-54,-68,64,-142
7620,50,7793,-6998,6689,-11011,1946,2392,-62,64,-146
7630,51,16716,-23651,-1702,-6940,1207,4804,-62,64,-146
7640,52,2306,-24103,1343,-4247,-2509,5630,-52,86,-134
7650,53,-12349,-23808,1846,-6472,-2187,1641,-52,86,-134
7660,54,-11945,-4762,-7692,-1194,-2358,931,-44,98,-122
7670,55,-8404,-836,-1653,2246,-1373,-1268,-44,98,-122
7680,56,-2696,-1719,-949,2843,628,-761,-46,102,-110
7690,57,-3,-6029,2315,2113,2330,-242,-46,102,-110
7700,58,3876,-12570,2696,864,3271,429,-45,95,-119
7710,59,4506,-14654,4751,97,-1153,1448,-45,95,-119
7720,60,2025,-8948,783,-423,-1754,741,-42,98,-124
7730,61,1436,-7185,-936,-1058,-1059,274,-42,98,-124
7740,62,2351,-5305,-3114,241,-854,-445,-43,99,-121
7750,63,2828,-5938,-628,1276,-871,-827,-43,99,-121
7760,64,2490,-6178,744,1171,-876,-918,-46,98,-122
7770,65,1948,-5843,525,626,-716,-908,-46,98,-122
7780,66,1562,-5327,130,431,-724,-771,-48,98,-122
7790,67,1139,-5034,114,490,-843,-570,-48,98,-122
7800,68,911,-4961,197,472,-870,-455,-50,90,-124
7810,69,1287,-5093,-83,24,-658,-272,-50,90,-124
7820,70,883,-5146,-1046,205,-619,-45,-51,95,-125
7830,71,710,-5113,-1103,915,-799,160,-51,95,-125
7840,72,50,-4520,-876,1438,-177,301,-52,92,-128
7850,73,364,-3250,-1145,2240,-113,268,-52,92,-128
7860,74,701,-1766,-734,3124,415,519,-51,91,-131
7870,75,152,-201,-692,3967,892,871,-51,91,-131
7880,76,-376,1028,-240,4367,618,1147,-52,84,-132
7890,77,-468,1544,515,3925,344,1347,-52,84,-132
7900,78,-625,2129,460,3491,180,1884,-49,85,-141
7910,79,-2050,3685,83,3869,231,2007,-49,85,-141
7920,80,-2081,4584,1158,3706,492,2075,-48,82,-148
7930,81,-1675,5289,1224,2271,888,1984,-48,82,-148
7940,82,-868,4571,1452,573,100,1573,-40,74,-154
7950,83,-230,3911,587,-1288,16,1337,-40,74,-154
7960,84,-620,3304,-656,-2166,-992,1080,-38,76,-156
7970,85,-854,2613,-418,-1922,-1517,850,-38,76,-156
7980,86,-707,2162,94,-1699,-679,542,-37,83,-155
7990,87,613,2401,939,-1261,1420,169,-37,83,-155
8000,88,7186,1824,5259,-31,-5319,-448,-37,83,-147
8010,89,-2604,3394,9777,125,-2804,419,-37,83,-147
8020,90,-1874,2071,7883,-2853,-3028,-1207,-38,82,-144
8030,91,-5851,-1911,7332,-6926,-2994,-3012,-38,82,-144
8040,92,-7273,-11839,1135,-7923,-970,-5959,-49,89,-143
8050,93,-1114,-25191,1721,-5410,1242,-7610,-49,89,-143
8060,94,26686,-32767,-4538,-6234,-2205,-833,-59,93,-129
8070,95,7280,-6011,-7076,764,-520,939,-59,93,-129
8080,96,5694,-1474,-4128,5525,1652,442,-68,90,-108
8090,97,2020,-1006,1086,5612,844,-28,-68,90,-108
8100,98,-162,-5049,4324,3609,-286,-455,-66,84,-122
8110,99,-114,-10685,6731,419,-480,-1453,-66,84,-122
8120,100,2483,-10971,4367,-1881,607,-1529,-69,85,-129
8130,101,3941,-12444,650,-2672,1125,-674,-69,85,-129
8140,102,752,-7151,-2117,-2433,349,308,-73,79,-125
8150,103,-874,-5421,-2772,-1100,621,275,-73,79,-125
8160,104,-631,-5159,-2258,464,661,326,-72,82,-122
8170,105,-238,-5053,-123,821,620,597,-72,82,-122
8180,106,-467,-5069,1186,237,1078,918,-69,85,-127
8190,107,654,-5280,-130,-339,1621,977,-69,85,-127
8200,108,652,-5161,-1008,166,777,913,-64,82,-128
8210,109,660,-4783,-886,696,837,672,-64,82,-128
8220,110,540,-4260,-329,1129,796,540,-65,89,-125
8230,111,8,-3648,125,1123,700,460,-65,89,-125
8240,112,-415,-3130,-46,1255,460,307,-55,87,-135
8250,113,-1008,-2373,152,1730,84,15,-55,87,-135
8260,114,-1443,-738,0,2202,568,-121,-62,86,-138
8270,115,-1670,681,-559,2899,874,-301,-62,86,-138
8280,116,-1643,1434,-764,3314,1116,-565,-57,79,-139
8290,117,-1523,2672,-661,3866,1539,-783,-57,79,-139
8300,118,-382,4706,1399,4120,-1402,-1248,-56,70,-148
8310,119,-1854,4529,1917,996,-234,-1494,-56,70,-148
8320,120,-1794,5211,-166,-1353,-608,-1896,-54,68,-150
8330,121,-585,4623,-1257,-1478,76,-1991,-54,68,-150
8340,122,-363,3487,-1645,-1658,-508,-1802,-64,68,-146
8350,123,-186,2796,-1257,-1422,-840,-1477,-64,68,-146
8360,124,-248,2320,-677,-913,-631,-1140,-69,65,-151
8370,125,27,2051,-548,-818,-632,-851,-69,65,-151
8380,126,-214,1110,363,-1514,-984,-552,-70,64,-146
8390,127,-7853,1096,7808,-1566,820,-113,-70,64,-146
8400,128,-1806,3886,6975,-1330,1479,-436,-75,67,-141
8410,129,5240,434,7407,-4293,2203,455,-75,67,-141
8420,130,11407,-5799,9301,-8666,1727,2216,-73,77,-139
8430,131,19336,-15994,2233,-8885,1910,5329,-73,77,-139
8440,132,3829,-23256,-2022,-5101,-1112,6445,-67,87,-129
8450,133,-9784,-23053,1256,-5482,-3035,2660,-67,87,-129
8460,134,-10258,-8858,-6742,-3460,-858,1048,-52,98,-116
8470,135,-10960,-4280,-2053,1141,-1249,-1042,-52,98,-116
8480,136,-2554,-1303,-1055,2934,881,-1054,-49,105,-109
8490,137,-860,-5427,2562,2787,1884,-726,-49,105,-109
8500,138,3972,-12828,4156,511,3615,-67,-56,102,-122
8510,139,10436,-11121,-7289,1128,1459,887,-56,102,-122
8520,140,1513,-11379,3094,699,-3080,776,-45,101,-121
8530,141,795,-7396,-389,-746,-1385,388,-45,101,-121
8540,142,398,-4637,-2894,-444,-612,-281,-54,98,-116
8550,143,2163,-6335,-1876,702,-419,-847,-54,98,-116
8560,144,2265,-6467,-533,1118,-256,-1103,-53,101,-119
8570,145,2149,-6816,422,1050,-493,-1084,-53,101,-119
8580,146,1074,-6426,433,637,-415,-935,-54,98,-118
8590,147,1189,-6134,-111,661,-514,-725,-54,98,-118
8600,148,827,-5449,-730,872,-791,-471,-58,96,-118
8610,149,576,-4766,-1086,1084,-810,-320,-58,96,-118
8620,150,295,-4382,-1083,1214,-562,-147,-55,97,-123
8630,151,626,-3903,-1059,1386,-400,88,-55,97,-123
8640,152,450,-3477,-710,1624,-511,346,-54,92,-126
8650,153,258,-2607,-560,2080,-624,579,-54,92,-126
8660,154,92,-1919,161,2762,-436,830,-59,91,-129
8670,155,164,-1211,563,3309,582,1027,-59,91,-129
8680,156,48,118,706,3873,1201,1253,-59,83,-131
8690,157,-187,1658,327,3966,1562,1548,-59,83,-131
8700,158,-671,2717,547,3810,903,1642,-54,80,-142
8710,159,-712,3254,1283,2903,47,1660,-54,80,-142
8720,160,-498,3167,2152,1399,-561,1914,-51,77,-145
8730,161,-1573,4516,394,387,-550,1877,-51,77,-145
8740,162,-977,3652,592,98,101,1461,-46,78,-150
8750,163,-738,3577,-482,-601,788,1249,-46,78,-150
8760,164,-42,2958,-454,-785,309,1023,-43,81,-149
8770,165,246,2492,-93,-830,165,826,-43,81,-149
8780,166,1091,2192,1040,-974,575,476,-38,80,-148
8790,167,4975,2429,3932,-115,-3357,256,-38,80,-148
8800,168,3097,2552,4244,-504,-4108,243,-43,89,-143
8810,169,-6815,3756,7727,-2214,-2717,-397,-43,89,-143
8820,170,-4003,216,3155,-4056,-2632,-1918,-46,86,-146
8830,171,-4601,-4177,5460,-5399,-2613,-3608,-46,86,-146
8840,172,-4824,-15587,3684,-6242,-1371,-5926,-57,91,-133
8850,173,4037,-21558,319,-7049,739,-6055,-57,91,-133
8860,174,13851,-22369,-3450,-5792,-1761,568,-69,95,-117
8870,175,3996,-4600,-7534,1779,80,320,-69,95,-117
8880,176,3060,-2774,-1495,5603,1253,-145,-75,89,-103
8890,177,1328,-2983,2054,4950,294,-475,-75,89,-103
8900,178,-259,-7249,5105,2384,-170,-886,-69,87,-117
8910,179,1980,-10332,5001,-1588,-458,-1140,-69,87,-117
8920,180,2214,-11914,1004,-2016,125,-450,-70,84,-126
8930,181,3601,-10149,-1846,-1496,277,194,-70,84,-126
8940,182,159,-5945,-2996,-401,122,761,-75,85,-123
8950,183,258,-5053,-2558,787,680,535,-75,85,-123
8960,184,-405,-4690,337,1599,844,668,-66,88,-120
8970,185,729,-5008,856,1283,1705,783,-66,88,-120
8980,186,1276,-4983,695,835,916,1080,-72,92,-124
8990,187,325,-5195,1160,243,560,1120,-72,92,-124
9000,188,259,-5656,863,-164,565,907,-66,88,-126
9010,189,44,-5436,-486,-2,649,652,-66,88,-126
9020,190,-302,-4852,-689,616,529,422,-63,87,-123
9030,191,-173,-4194,-579,1000,482,239,-63,87,-123
9040,192,-359,-2970,-711,1513,357,87,-62,90,-132
9050,193,-374,-2024,-80,2124,486,-100,-62,90,-132
9060,194,-36,-714,457,2506,986,-68,-63,85,-125
9070,195,-212,670,439,2876,1386,-120,-63,85,-125
9080,196,-227,1505,137,2815,1362,-216,-62,88,-140
9090,197,-244,2150,87,2614,810,-416,-62,88,-140
9100,198,-720,3260,6,2643,910,-655,-61,79,-147
9110,199,-635,4069,1385,2623,171,-1006,-61,79,-147
9120,200,-280,4571,1525,172,-299,-1317,-59,71,-153
9130,201,-1238,4342,-487,-1240,-251,-1495,-59,71,-153
9140,202,-835,4071,-1273,-1548,-154,-1552,-59,71,-153
9150,203,-341,2990,-1176,-1980,-733,-1442,-59,71,-153
9160,204,-287,2121,-915,-1906,-875,-1217,-61,65,-151
9170,205,-299,1645,-594,-1603,-536,-942,-61,65,-151
9180,206,-2303,120,-972,-1567,-1021,-505,-70,72,-148
9190,207,-3488,1870,6951,2086,1654,-466,-70,72,-148
9200,208,2228,6137,11469,-244,2380,-544,-67,73,-143
9210,209,5186,1514,1869,-6240,1190,157,-67,73,-143
9220,210,6535,-4746,3224,-7956,1671,1598,-68,76,-148
9230,211,14876,-16794,2995,-5049,1519,3735,-68,76,-148
9240,212,4566,-25579,4944,-4842,-1768,5781,-61,91,-129
9250,213,-11179,-22072,2808,-7631,-1186,1927,-61,91,-129
9260,214,-11477,-6713,-8232,-3703,-1619,719,-51,103,-125
9270,215,-8865,-2400,-5418,709,-762,-1081,-51,103,-125
9280,216,-2940,-2127,-1652,3574,532,-986,-48,106,-116
9290,217,-614,-6350,2990,3411,992,-653,-48,106,-116
9300,218,2625,-11201,4228,1072,1973,213,-57,97,-121
9310,219,5782,-11896,-513,-460,1509,815,-57,97,-121
9320,220,3543,-11358,1102,-266,-2742,704,-48,94,-122
9330,221,425,-5495,-557,-844,-1520,458,-48,94,-122
9340,222,2484,-6253,-2454,-848,-395,-494,-49,101,-121
9350,223,2325,-6405,-1304,478,-147,-953,-49,101,-121
9360,224,2988,-6756,-204,1085,24,-1134,-55,101,-121
9370,225,2045,-6492,574,1116,-432,-1008,-55,101,-121
9380,226,1278,-6135,641,774,-410,-926,-53,95,-121
9390,227,948,-5772,425,687,-643,-713,-53,95,-121
9400,228,613,-5255,-89,568,-716,-574,-57,101,-125
9410,229,220,-4847,-847,401,-652,-427,-57,101,-125
9420,230,167,-4586,-1509,568,-416,-209,-58,98,-122
9430,231,151,-3767,-1741,1128,-392,3,-58,98,-122
9440,232,119,-3435,-1026,1813,-381,194,-61,95,-123
9450,233,232,-2902,-355,2359,-239,374,-61,95,-123
9460,234,661,-1738,-8,3058,225,542,-62,92,-126
9470,235,635,-322,-82,3817,972,947,-62,92,-126
9480,236,7,850,257,4160,964,1279,-60,88,-138
9490,237,-662,1681,907,3735,665,1511,-60,88,-138
9500,238,-705,2117,1590,2751,829,1712,-51,83,-143
9510,239,-929,2688,1318,1896,585,2008,-51,83,-143
9520,240,-1220,3640,808,1121,-102,2158,-49,79,-147
9530,241,-1328,4111,625,675,-45,1919,-49,79,-147
9540,242,-867,4116,213,12,634,1680,-52,82,-144
9550,243,-3,3819,-226,-373,850,1307,-52,82,-144
9560,244,651,3152,-378,-603,417,1158,-43,83,-153
9570,245,550,2746,135,-286,-158,1044,-43,83,-153
9580,246,3447,3109,3630,312,-2989,737,-40,80,-148
9590,247,1716,2624,5395,-436,-4394,516,-40,80,-148
9600,248,-2484,5458,10151,-2982,-2478,293,-38,86,-150
9610,249,-4225,2378,3782,-4324,-1905,-706,-38,86,-150
9620,250,-4321,441,-193,-4335,-2342,-2397,-46,92,-140
9630,251,-1582,-5412,4544,-3612,-3613,-4175,-46,92,-140
9640,252,-5440,-17231,8981,-6485,-144,-6288,-56,98,-132
9650,253,10048,-23421,-4272,-7313,474,-5791,-56,98,-132
9660,254,11990,-17668,-6131,-4583,-1097,-105,-68,90,-120
9670,255,3351,-2233,-5510,3521,590,-237,-68,90,-120
9680,0,2344,-1192,-889,5039,2569,-545,-70,94,-110
9690,1,1989,-4538,1358,3639,-124,-844,-70,94,-110
9700,2,1066,-10474,5955,909,-33,-1139,-74,88,-114
9710,3,2270,-12641,3108,-2111,102,-1271,-74,88,-114
9720,4,2873,-12802,-299,-2445,-219,-75,-74,86,-124
9730,5,-158,-7762,-3776,-2508,-201,911,-74,86,-124
9740,6,-2480,-4625,-5086,-962,351,712,-74,88,-112
9750,7,-1694,-4972,-3475,1107,654,372,-74,88,-112
9760,8,-895,-5716,-744,1738,1061,319,-77,85,-115
9770,9,895,-6563,224,1593,986,646,-77,85,-115
9780,10,999,-7074,1471,931,641,896,-72,84,-122
9790,11,1199,-6630,981,218,498,1101,-72,84,-122
9800,12,758,-5637,-467,-365,615,1062,-66,90,-122
9810,13,379,-4479,-1938,-201,240,885,-66,90,-122
9820,14,-386,-4043,-1608,250,442,639,-66,92,-124
9830,15,-897,-3714,-1508,698,555,310,-66,92,-124
9840,16,-1187,-3007,-1179,1283,364,-60,-65,95,-127
9850,17,-1459,-2010,-694,2176,421,-411,-65,95,-127
9860,18,-571,-725,75,3280,1344,-648,-63,91,-127
9870,19,-663,732,955,4266,2015,-599,-63,91,-127
9880,20,2,1671,53,4505,2565,-776,-62,86,-136
9890,21,-733,2620,68,4707,1778,-925,-62,86,-136
9900,22,-1532,4516,570,4416,1496,-1073,-59,71,-139
9910,23,920,4503,4367,2313,-1278,-1465,-59,71,-139
9920,24,-1928,4637,1063,-1080,-151,-1392,-56,68,-154
9930,25,-88,3837,-185,-2509,280,-1468,-56,68,-154
9940,26,475,3671,-2672,-2989,-602,-1464,-69,63,-155
9950,27,159,2330,-2634,-2623,-1899,-1266,-69,63,-155
9960,28,-3022,857,-1798,-1986,-3263,-1057,-69,69,-149
9970,29,-5781,4232,5951,378,5296,-1217,-69,69,-149
9980,30,5514,4259,10009,1870,2130,-1107,-72,72,-146
9990,31,3421,2995,3324,-5492,911,-19,-72,72,-146
10000,32,6104,-1484,2809,-6917,1615,1479,-70,66,-146
10010,33,7929,-8126,7555,-6828,2576,3396,-70,66,-146
10020,34,15255,-29544,2386,-6016,436,4375,-68,76,-138
10030,35,-5201,-24331,2097,-8270,-2515,5381,-68,76,-138
10040,36,-9313,-13145,-10317,-9887,-893,1601,-53,97,-127
10050,37,-12218,-3601,-7149,-654,-1892,-142,-53,97,-127
10060,38,-5397,-706,-2349,2800,-593,-1611,-52,104,-106
10070,39,-2170,-3704,645,3151,274,-1062,-52,104,-106
10080,40,1781,-6824,1463,2376,1307,-358,-51,103,-115
10090,41,5086,-11114,1290,1231,664,617,-51,103,-115
10100,42,1816,-10099,1867,-341,-1312,1117,-51,101,-115
10110,43,2224,-8946,359,-1272,-1818,652,-51,101,-115
10120,44,1442,-6322,-2881,-1808,-934,311,-52,94,-114
10130,45,2080,-5126,-4144,-88,-603,-451,-52,94,-114
10140,46,1946,-5180,-1598,1299,-497,-989,-48,100,-108
10150,47,2289,-4902,-732,1766,-605,-1329,-48,100,-108
10160,48,1623,-5301,237,1639,-975,-1294,-57,105,-113
10170,49,978,-5165,589,1479,-1223,-1108,-57,105,-113
10180,50,568,-4733,731,1078,-1191,-869,-61,95,-117
10190,51,365,-4587,454,646,-1112,-562,-61,95,-117
10200,52,241,-4631,-155,361,-931,-254,-62,100,-116
10210,53,289,-4286,-1016,541,-756,35,-62,100,-116
10220,54,110,-3776,-1431,1270,-244,256,-64,96,-118
10230,55,257,-2969,-1573,2364,157,412,-64,96,-118
10240,56,675,-1595,-1366,3584,575,541,-58,94,-118
10250,57,355,-340,-512,4745,1152,741,-58,94,-118
10260,58,636,845,-174,5122,1944,1166,-66,92,-124
10270,59,304,1790,177,5272,2105,1410,-66,92,-124
10280,60,200,2372,738,4862,1525,1765,-58,84,-136
10290,61,-640,3987,1380,4366,910,1924,-58,84,-136
10300,62,-652,4241,3066,2567,270,2061,-54,78,-142
10310,63,-1099,5263,1951,562,-51,1850,-54,78,-142
10320,64,-708,5095,852,-1076,-174,1491,-47,77,-153
10330,65,-525,4627,-1143,-1978,-319,1301,-47,77,-153
10340,66,-453,3837,-920,-1832,-804,1138,-42,82,-152
10350,67,-699,3032,-101,-1981,-333,820,-42,82,-152
10360,68,-15,2737,738,-1952,922,187,-42,84,-148
10370,69,4939,1251,1172,-529,2891,-553,-42,84,-148
10380,70,5302,2518,8165,-1353,-4857,28,-37,83,-143
10390,71,-5640,1719,5088,-2593,-7296,-805,-37,83,-143
10400,72,-6128,-2051,10353,-4188,-2867,-2114,-49,91,-137
10410,73,-6273,-9429,7390,-7928,-2141,-5422,-49,91,-137
10420,74,331,-22718,6728,-7134,830,-6275,-57,95,-129
10430,75,26298,-28838,-5288,-7179,-1628,-5971,-57,95,-129
10440,76,9718,-8373,-9470,-2956,-906,688,-72,94,-110
10450,77,3885,-3033,-4386,3613,1343,105,-72,94,-110
10460,78,1515,-2688,774,5182,1557,-514,-73,91,-105
10470,79,465,-5802,4281,3623,1078,-1077,-73,91,-105
10480,80,3100,-12987,5776,-137,796,-1206,-75,87,-111
10490,81,3304,-13197,2582,-1993,1086,-521,-75,87,-111
10500,82,2248,-10353,-1730,-2305,1422,595,-75,87,-115
10510,83,-240,-6621,-3295,-1794,528,800,-75,87,-115
10520,84,-1410,-4483,-4717,-723,806,882,-75,85,-113
10530,85,-1274,-4926,-1839,1111,511,673,-75,85,-113
10540,86,-795,-5070,4,1639,943,665,-75,85,-113
10550,87,-207,-5290,534,1369,710,897,-75,85,-113
10560,88,-232,-5199,1165,678,542,1047,-70,84,-116
10570,89,4,-5373,879,-34,615,966,-70,84,-116
10580,90,-76,-5884,207,-243,672,820,-66,92,-118
10590,91,-1,-5312,-878,85,639,646,-66,92,-118
10600,92,-102,-4733,-581,514,798,413,-64,92,-120
10610,93,38,-3806,-928,812,659,254,-64,92,-120
10620,94,-579,-2711,-694,1189,110,38,-65,91,-123
10630,95,-566,-1577,-314,1688,119,-148,-65,91,-123
10640,96,-708,-226,-208,2415,737,-345,-61,91,-129
10650,97,-565,573,15,3152,1441,-592,-61,91,-129
10660,98,-763,1359,8,3550,1774,-785,-67,89,-127
10670,99,81,2307,-164,3755,2202,-838,-67,89,-127
10680,100,121,3596,-206,4093,2415,-932,-60,82,-146
10690,101,388,4590,-590,3853,1838,-1093,-60,82,-146
10700,102,65,5614,2329,2659,-695,-1279,-59,77,-147
10710,103,-888,5306,874,-662,-839,-1606,-59,77,-147
10720,104,-453,4636,34,-1586,-877,-1745,-59,59,-153
10730,105,119,3262,-1033,-2326,-777,-1621,-59,59,-153
10740,106,378,2262,-1234,-2054,-727,-1321,-67,67,-149
10750,107,-304,1755,-1004,-1761,-522,-882,-67,67,-149
10760,108,-3523,315,-539,-1425,-1715,-464,-67,67,-147
10770,109,-10645,521,31475,200,-1916,-516,-67,67,-147
10780,110,4163,3105,15664,2196,2746,-204,-71,71,-145
10790,111,6009,598,6718,-6802,2530,1033,-71,71,-145
10800,112,5827,-6408,2911,-10296,2353,2754,-68,72,-146
10810,113,5942,-18951,9488,-6683,-1275,3897,-68,72,-146
10820,114,3695,-24945,4893,-6661,-2716,6425,-59,85,-137
10830,115,-9471,-20895,584,-11264,-1197,1725,-59,85,-137
10840,116,-13458,-4438,-8129,-3098,-1647,196,-57,107,-115
10850,117,-5514,-2462,-6063,455,-1070,-995,-57,107,-115
10860,118,-1184,-3890,-1448,2748,-441,-774,-51,109,-101
10870,119,1039,-8078,2512,1767,332,-121,-51,109,-101
10880,120,5110,-12252,959,-408,894,953,-55,101,-107
10890,121,4218,-9976,-3531,-145,-1879,853,-55,101,-107
10900,122,1108,-10093,-777,-341,-1516,279,-62,104,-110
10910,123,2273,-5731,-5596,402,-526,-220,-62,104,-110
10920,124,1843,-5193,-2214,2080,229,-1083,-49,105,-107
10930,125,3382,-5679,-648,2390,726,-1362,-49,105,-107
10940,126,2972,-5315,359,2164,353,-1343,-50,106,-108
10950,127,2190,-5456,901,983,-665,-1245,-50,106,-108
10960,128,1477,-5937,809,-341,-1883,-1115,-60,100,-112
10970,129,-312,-7144,330,-283,-324,-666,-60,100,-112
10980,130,353,-5657,-2058,267,-625,-600,-62,100,-108
10990,131,57,-5226,-1886,1112,-309,-450,-62,100,-108
11000,132,-88,-4700,-1590,1660,-4,-268,-60,100,-112
11010,133,-34,-4164,-1159,2014,4,-54,-60,100,-112
11020,134,-99,-3378,-988,2439,29,204,-66,94,-114
11030,135,-199,-2451,-921,3083,113,350,-66,94,-114
11040,136,-184,-1197,-547,4018,485,527,-68,94,-118
11050,137,-232,-73,55,4852,1312,760,-68,94,-118
11060,138,-354,900,63,5372,1852,990,-62,90,-128
11070,139,-1028,2124,103,5712,2117,1519,-62,90,-128
11080,140,-1588,3476,118,5246,2052,1709,-59,87,-141
11090,141,-966,3536,1053,4351,2026,1986,-59,87,-141
11100,142,-1519,4499,297,3482,1943,2087,-51,75,-151
11110,143,-1071,5109,770,1738,1232,1568,-51,75,-151
11120,144,-269,4716,654,-316,649,1275,-46,68,-164
11130,145,253,4110,-81,-1712,-661,876,-46,68,-164
11140,146,320,3184,60,-2305,-1333,712,-36,68,-162
11150,147,1085,3237,1918,-1636,306,278,-36,68,-162
11160,148,3770,2473,8858,-661,-2988,135,-39,79,-159
11170,149,-2192,5739,5231,-1612,-4561,175,-39,79,-159
11180,150,-5476,1650,4073,-2830,-5301,-907,-42,80,-156
11190,151,-4410,-597,5443,-5277,-4924,-2833,-42,80,-156
11200,152,-4387,-10692,1794,-6986,-5331,-5635,-56,88,-140
11210,153,510,-29538,13614,-6707,1155,-6640,-56,88,-140
11220,154,32069,-15968,-15834,-10231,4242,-5043,-72,90,-124
11230,155,4049,-6092,-992,-3716,-3286,880,-72,90,-124
11240,156,4409,-1931,-5208,3184,2682,474,-80,84,-114
11250,157,1635,-2290,-473,4509,2527,316,-80,84,-114
11260,158,-236,-3253,520,2865,207,-939,-77,85,-117
11270,159,387,-12581,9949,-654,-2705,-1566,-77,85,-117
11280,160,2966,-11818,1065,-1410,1606,-921,-78,84,-124
11290,161,2042,-11136,-413,-2027,1761,-201,-78,84,-124
11300,162,-24,-6536,-3786,-1968,651,232,-81,87,-121
11310,163,-1923,-4766,-3673,-647,471,274,-81,87,-121
11320,164,-1131,-4843,-1777,1051,492,227,-83,81,-117
11330,165,-218,-4720,-291,1353,709,502,-83,81,-117
11340,166,653,-4850,151,945,639,876,-74,82,-118
11350,167,348,-4527,135,583,673,1165,-74,82,-118
11360,168,598,-4754,-55,408,910,1139,-77,81,-123
11370,169,563,-4678,1,646,1135,1010,-77,81,-123
11380,170,500,-4194,-180,949,1535,831,-73,87,-121
11390,171,411,-3927,-379,837,1210,645,-73,87,-121
11400,172,-298,-3241,-486,793,585,497,-66,88,-128
11410,173,-427,-2605,-255,1084,194,217,-66,88,-128
11420,174,-664,-1269,37,1600,265,154,-64,84,-130
11430,175,-1385,207,-161,2122,645,37,-64,84,-130
11440,176,-1608,1052,-70,2617,864,-326,-67,85,-131
11450,177,-1655,1967,-242,3049,1187,-649,-67,85,-131
11460,178,-1272,2762,-571,3601,1468,-757,-66,82,-144
11470,179,-2223,4447,-695,4665,2050,-1336,-66,82,-144
11480,180,-2139,5841,-969,4872,2583,-1496,-65,65,-145
11490,181,-334,6023,259,3340,1719,-1951,-65,65,-145
11500,182,516,5674,2666,106,-1496,-2115,-62,62,-158
11510,183,-954,3934,779,-2128,-1867,-2011,-62,62,-158
11520,184,-76,2891,-486,-2899,-976,-1746,-65,55,-161
11530,185,440,2408,-1897,-2751,-777,-1406,-65,55,-161
11540,186,-167,1419,-1725,-2483,-1185,-1087,-77,55,-145
11550,187,-4478,326,-1711,-1524,-4826,-709,-77,55,-145
11560,188,-6979,4284,6507,1002,7751,-1063,-71,65,-149
11570,189,7754,1027,14424,-2243,3239,418,-71,65,-149
11580,190,12496,-3310,6647,-12148,2045,2912,-73,59,-151
11590,191,20313,-19607,-513,-11344,-2855,6734,-73,59,-151
11600,192,10157,-26364,-2083,-5868,-2344,2177,-66,76,-136
11610,193,-12421,-19555,-503,-11045,-278,2491,-66,76,-136
11620,194,-15395,-5258,-10493,-4868,-95,1098,-58,98,-120
11630,195,-8746,-5656,-3702,-538,-818,-1331,-58,98,-120
11640,196,-4400,-1741,-2097,1997,-404,-645,-54,106,-106
11650,197,-2029,-6849,1760,1681,187,-679,-54,106,-106
11660,198,3819,-12418,609,-223,788,203,-59,99,-107
11670,199,5682,-10292,-4255,731,206,765,-59,99,-107
11680,200,3718,-11500,-1147,-618,-2398,73,-61,101,-105
11690,201,1653,-7583,-2513,24,-436,-16,-61,101,-105
11700,202,1196,-4449,-3488,1349,2234,-633,-55,101,-107
11710,203,4490,-4458,-4066,2406,2136,-1219,-55,101,-107
11720,204,4489,-4559,-1599,3023,775,-1479,-61,103,-111
11730,205,3317,-5010,-95,2551,-22,-1415,-61,103,-111
11740,206,2093,-5711,530,1454,-1113,-1286,-64,94,-122
11750,207,903,-6266,832,470,-2327,-1147,-64,94,-122
11760,208,-39,-6677,1274,-228,-2445,-858,-62,92,-124
11770,209,-443,-5693,-793,478,-96,-434,-62,92,-124
11780,210,-77,-4847,-1579,666,543,48,-64,94,-118
11790,211,-791,-3522,-2089,756,100,254,-64,94,-118
11800,212,-966,-2962,-1914,1506,-159,333,-68,88,-124
11810,213,-310,-2406,-1739,2612,181,464,-68,88,-124
11820,214,84,-1106,-1100,3866,606,838,-70,88,-124
11830,215,283,-80,-308,5079,1350,1240,-70,88,-124
11840,216,251,1013,-100,5797,1875,1700,-67,85,-137
11850,217,-376,2061,396,6397,2720,2245,-67,85,-137
11860,218,-1770,3788,160,6087,3096,2694,-57,75,-145
11870,219,-984,4826,-69,5284,3115,2521,-57,75,-145
11880,220,-663,4957,1142,4172,2949,2484,-50,68,-162
11890,221,-844,5567,1452,2441,2707,2109,-50,68,-162
11900,222,888,5878,2239,447,-46,1737,-36,62,-170
11910,223,-462,4655,869,-2363,-128,1260,-36,62,-170
11920,224,-212,3553,613,-2910,-1254,1000,-36,64,-168
11930,225,-496,3581,678,-2362,-835,515,-36,64,-168
11940,226,3649,3581,4463,-875,-3108,122,-29,65,-163
11950,227,-962,5526,8147,-3394,-3239,-32,-29,65,-163
11960,228,-5279,1981,2154,-3674,-5891,-992,-41,77,-161
11970,229,-6352,155,6077,-6003,-6695,-2491,-41,77,-161
11980,230,-4107,-4903,3400,-9185,-3769,-4930,-49,83,-151
11990,231,5879,-19909,4983,-11491,-10501,-7420,-49,83,-151
12000,232,16061,-28489,-366,-11243,1408,-4721,-71,89,-125
12010,233,24996,-25718,-9704,-4678,43,-1556,-71,89,-125
12020,234,4548,-4380,-5216,2002,-122,378,-76,84,-104
12030,235,1765,-2487,-290,5739,2073,12,-76,84,-104
12040,236,1009,-5039,2308,4258,2936,-618,-78,90,-106
12050,237,3354,-10936,2474,-864,-938,-1296,-78,90,-106
12060,238,-813,-15250,8059,-3322,775,-700,-76,86,-120
12070,239,2150,-11191,-3942,-1881,3860,811,-76,86,-120
12080,240,1135,-7441,-6311,-859,3092,1993,-78,84,-116
12090,241,-1974,-3192,-5844,-382,351,1666,-78,84,-116
12100,242,-1955,-3533,-2649,808,-429,1051,-69,95,-115
12110,243,-1288,-3940,-898,1359,-442,795,-69,95,-115
12120,244,-980,-4421,-260,1092,-422,975,-70,96,-112
12130,245,-492,-4761,84,575,150,1101,-70,96,-112
12140,246,898,-5468,-613,338,807,1090,-71,87,-117
12150,247,708,-5104,-799,571,773,1074,-71,87,-117
12160,248,476,-4795,-427,982,1133,748,-63,93,-117
12170,249,883,-4260,-435,1049,1176,437,-63,93,-117
12180,250,714,-3458,-355,925,716,293,-59,93,-123
12190,251,34,-2872,-863,1158,486,184,-59,93,-123
12200,252,-324,-1359,-1424,1816,294,-67,-57,91,-127
12210,253,-273,428,-1350,2784,527,-280,-57,91,-127
12220,254,-191,1001,-639,3854,989,-330,-58,86,-128
12230,255,7,2531,-803,5023,1467,-747,-58,86,-128
12240,0,-25,3866,-735,6434,2297,-852,-59,87,-139
12250,1,-624,5599,-366,7347,3358,-572,-59,87,-139
12260,2,-374,6002,-1158,7702,5093,-605,-55,73,-155
12270,3,1098,9713,1905,5747,-2014,-1285,-55,73,-155
12280,4,-2156,6303,4053,-446,-2253,-1859,-46,52,-172
12290,5,-3231,4269,988,-2586,-1499,-2030,-46,52,-172
12300,6,-820,2891,768,-3200,229,-1760,-53,51,-171
12310,7,264,2526,-973,-2985,497,-1363,-53,51,-171
12320,8,439,1779,-1591,-2986,-110,-913,-55,53,-165
12330,9,-178,1097,-745,-3071,-978,-528,-55,53,-165
12340,10,-1445,-77,325,-3628,-1190,-276,-58,64,-162
12350,11,-3054,-1173,-1176,-3891,-4469,-172,-58,64,-162
12360,12,-12105,-2032,32767,-1670,1098,51,-62,70,-160
12370,13,8740,-3255,24329,-2230,4492,2250,-62,70,-160
12380,14,12093,-19189,16317,-14321,3775,5139,-67,71,-145
12390,15,13172,-25715,5317,-10249,-5369,5979,-67,71,-145
12400,16,-10413,-9738,-4927,-7733,-1141,-2882,-62,92,-130
12410,17,-5277,-18933,-1268,-8274,-808,912,-62,92,-130
12420,18,-11544,-6817,-5798,-2164,-497,-194,-58,108,-112
12430,19,-2091,-2848,-6484,3149,2856,-535,-58,108,-112
12440,20,-771,-3953,-2269,4428,1512,-297,-49,107,-103
12450,21,-959,-6000,519,1807,647,-1560,-49,107,-103
12460,22,15252,-10875,-2852,-665,-903,-685,-57,105,-119
12470,23,9892,-12721,-829,-908,-5080,267,-57,105,-119
12480,24,379,-8357,2122,-734,-1993,469,-61,109,-111
12490,25,91,-5156,-1009,914,2295,122,-61,109,-111
12500,26,2760,-4703,-2946,368,2206,-523,-57,103,-111
12510,27,4918,-5196,-3132,-11,701,-1032,-57,103,-111
12520,28,4288,-6411,-1758,-746,-1021,-1126,-53,99,-111
12530,29,2799,-7455,-584,-1660,-1248,-739,-53,99,-111
12540,30,1291,-7012,-950,-2063,-453,-70,-56,102,-110
12550,31,485,-6128,-2453,-1533,714,293,-56,102,-110
12560,32,-226,-4798,-3636,-314,1435,340,-60,100,-108
12570,33,-698,-3015,-3710,838,1878,237,-60,100,-108
12580,34,-179,-2491,-3639,1128,1562,167,-55,107,-109
12590,35,639,-3473,-2747,786,-19,-2,-55,107,-109
12600,36,211,-4186,-1541,1336,-243,173,-56,100,-112
12610,37,748,-4273,-944,2508,500,531,-56,100,-112
12620,38,1647,-3224,-750,3197,404,842,-55,101,-117
12630,39,1464,-1914,-341,3885,68,1204,-55,101,-117
12640,40,605,-574,175,4284,386,1682,-54,98,-122
12650,41,-908,345,496,4540,877,2220,-54,98,-122
12660,42,-2066,1586,613,4783,206,2247,-46,94,-124
12670,43,-2875,2568,1058,4434,-263,2045,-46,94,-124
12680,44,-2754,2831,1999,3913,81,2048,-46,88,-140
12690,45,-2780,3706,1781,3259,1055,2158,-46,88,-140
12700,46,-2135,4037,873,2676,2026,1983,-43,83,-149
12710,47,-1527,4445,-332,1960,2157,1554,-43,83,-149
12720,48,-706,4274,-549,1435,958,1059,-36,78,-156
12730,49,233,4295,-206,2484,-269,254,-36,78,-156
12740,50,2586,2355,1962,4268,-168,74,-28,80,-160
12750,51,-1536,5980,6688,4618,-761,979,-28,80,-160
12760,52,-4969,3586,13828,-2558,-3405,-447,-27,71,-161
12770,53,-3207,2907,103,-5555,-2866,-1751,-27,71,-161
12780,54,-915,487,-600,-6438,-4754,-3806,-35,77,-155
12790,55,-911,-11166,3043,-7716,-8007,-6204,-35,77,-155
12800,56,7927,-25399,16437,-16401,-10859,-7400,-51,85,-147
12810,57,25189,-32541,-12610,-18083,-4781,-850,-51,85,-147
12820,58,1523,-4454,-11302,41,2129,922,-80,100,-104
12830,59,3239,306,-6274,5885,4194,416,-80,100,-104
12840,60,1117,-640,-1679,6305,2016,-573,-77,97,-103
12850,61,981,-4677,1219,2311,-1574,-1657,-77,97,-103
12860,62,5008,-11098,2457,-2358,-4438,-1960,-71,93,-111
12870,63,3727,-18876,5744,-1805,2109,-503,-71,93,-111
12880,64,2202,-10281,-2024,-450,3641,919,-80,90,-106
12890,65,715,-5687,-3655,-597,4188,1211,-80,90,-106
12900,66,-444,-3707,-5859,-1077,1024,671,-76,88,-102
12910,67,-23,-4735,-4354,-37,-3,181,-76,88,-102
12920,68,762,-5145,-2860,1150,105,362,-75,91,-107
12930,69,1015,-4989,-1857,1376,172,601,-75,91,-107
12940,70,1409,-5205,-1442,1087,-23,728,-72,90,-110
12950,71,1416,-5782,-889,761,-98,820,-72,90,-110
12960,72,961,-5614,-989,1207,569,956,-73,89,-115
12970,73,160,-4982,-901,1636,1094,698,-73,89,-115
12980,74,280,-4461,-1214,1751,1019,390,-72,90,-118
12990,75,-108,-3798,-1376,1917,772,209,-72,90,-118
13000,76,-927,-3210,-1179,2190,489,-105,-69,93,-125
13010,77,-897,-2573,-1174,2605,0,-426,-69,93,-125
13020,78,-780,-1062,-992,3042,-464,-521,-70,86,-128
13030,79,-914,575,-413,3801,-140,-431,-70,86,-128
13040,80,-1476,2236,-147,4672,889,-1058,-68,80,-132
13050,81,-1463,2472,-90,5398,1613,-1367,-68,80,-132
13060,82,-1748,4252,-404,6566,3324,-1617,-67,77,-145
13070,83,-1760,5265,-877,6994,3242,-1799,-67,77,-145
13080,84,220,7015,-1937,6632,2808,-1656,-65,57,-157
13090,85,-751,6302,-637,4897,2296,-990,-65,57,-157
13100,86,-2412,5885,442,1953,674,-1381,-58,44,-170
13110,87,422,2430,1774,-751,-401,-1406,-58,44,-170
13120,88,-789,2930,770,-2465,-1460,-1165,-63,35,-173
13130,89,-830,2158,21,-3300,-1514,-908,-63,35,-173
13140,90,-1321,1558,24,-3538,-1319,-794,-66,44,-168
13150,91,-3216,866,-4,-3088,-3647,-1136,-66,44,-168
13160,92,-3336,4172,5125,-410,-7160,-1531,-65,51,-159
13170,93,-667,510,23820,-1472,5314,-206,-65,51,-159
13180,94,16197,-12,16161,-7716,3395,3451,-84,50,-152
13190,95,10055,-4970,9868,-13935,-1297,6489,-84,50,-152
13200,96,9926,-15496,-14680,-17108,-8736,6696,-74,66,-148
13210,97,-2123,-18268,-1702,-13099,1397,2514,-74,66,-148
13220,98,-8738,-16278,-8504,-11952,4251,-556,-69,99,-111
13230,99,-11178,-7682,-10038,-1998,8165,-783,-69,99,-111
13240,100,399,-3581,-9130,1930,4128,-781,-63,103,-91
13250,101,-2446,-2274,-3617,1593,-1592,-187,-63,103,-91
13260,102,3870,-8929,-2643,-44,-3212,-1435,-59,103,-103
13270,103,11754,-9715,-4560,-611,-4568,-408,-59,103,-103
13280,104,6589,-14247,1574,1985,-165,359,-64,102,-92
13290,105,4227,-7182,-472,1394,1847,550,-64,102,-92
13300,106,1415,-3371,-2905,335,3059,332,-66,98,-94
13310,107,2431,-3017,-5725,-373,1887,-690,-66,98,-94
13320,108,2703,-4047,-5214,-183,72,-1509,-65,99,-99
13330,109,2171,-5517,-3895,336,-553,-1724,-65,99,-99
13340,110,1340,-5727,-3138,1205,-221,-1471,-70,96,-96
13350,111,315,-5681,-2389,1848,-307,-1375,-70,96,-96
13360,112,930,-5624,-917,1956,-804,-1384,-74,90,-98
13370,113,1705,-5612,-385,2561,-41,-1030,-74,90,-98
13380,114,1988,-4484,64,2857,541,-671,-76,86,-108
13390,115,2072,-3995,22,2015,284,-384,-76,86,-108
13400,116,2334,-3688,-312,1345,188,-15,-77,81,-111
13410,117,3084,-3991,-961,978,140,491,-77,81,-111
13420,118,2288,-3869,-869,1205,125,1066,-76,78,-118
13430,119,1104,-2829,-783,1983,74,1415,-76,78,-118
13440,120,-589,-1714,353,2971,183,1776,-74,82,-120
13450,121,-1111,-339,560,3866,874,2071,-74,82,-120
13460,122,-1924,857,738,4879,1345,2178,-70,80,-124
13470,123,-2316,1650,539,5969,1649,2111,-70,80,-124
13480,124,-1962,3009,-276,6653,1958,2347,-65,71,-133
13490,125,-2829,3378,1077,7041,2977,2693,-65,71,-133
13500,126,-4796,5749,-162,5722,4367,2969,-59,69,-145
13510,127,-3835,6640,-745,3608,3951,1911,-59,69,-145
13520,128,-203,5506,-1778,1790,2245,619,-48,60,-160
13530,129,768,4497,-831,562,-1529,69,-48,60,-160
13540,130,274,3355,1757,-548,-3284,-196,-43,57,-167
13550,131,-646,2790,2089,-1881,-2247,-327,-43,57,-167
13560,132,1240,2519,2321,-1101,-1942,-759,-43,53,-161
13570,133,3584,2358,999,389,-3142,-1306,-43,53,-161
13580,134,888,1579,8606,3302,-4676,-558,-49,57,-157
13590,135,-5005,206,12108,-240,-1551,-1656,-49,57,-157
13600,136,-3266,-494,2931,-6433,-3918,-4207,-63,53,-157
13610,137,-675,-11032,11291,-14567,-11547,-7408,-63,53,-157
13620,138,8147,-19932,24406,-24009,546,-4736,-75,65,-143
13630,139,28947,-23972,-12376,-13393,-5390,-1606,-75,65,-143
13640,140,9548,-6452,-11693,2561,6809,1864,-90,76,-106
13650,141,1224,1084,-3335,4413,5083,1544,-90,76,-106
13660,142,2077,-3255,1439,4039,888,-211,-87,73,-109
13670,143,-434,-6609,-284,-1416,-625,-1249,-87,73,-109
13680,144,3933,-12284,-1268,-4679,-1038,-1673,-83,67,-119
13690,145,7785,-16496,-4391,-1936,3955,788,-83,67,-119
13700,146,2297,-7336,-5885,-845,5593,2469,-85,73,-113
13710,147,11,-3796,-6049,-151,5228,1212,-85,73,-113
13720,148,754,-4789,-3393,-417,4225,932,-78,72,-118
13730,149,1437,-4351,-3551,-1695,1532,1187,-78,72,-118
13740,150,1907,-3699,-4016,-1810,404,966,-74,78,-118
13750,151,2578,-4530,-4172,-945,138,773,-74,78,-118
13760,152,1986,-5133,-3294,8,32,790,-71,81,-123
13770,153,1793,-5380,-2460,1061,833,906,-71,81,-123
13780,154,908,-5251,-1227,1308,1341,959,-63,79,-123
13790,155,783,-5089,-1466,1057,1755,826,-63,79,-123
13800,156,116,-4771,-1441,985,1791,601,-62,82,-130
13810,157,-339,-4423,-2067,998,1463,397,-62,82,-130
13820,158,-511,-3358,-2725,1961,1118,491,-61,85,-137
13830,159,-114,-1318,-2632,3643,1078,779,-61,85,-137
13840,160,-1850,1108,-1192,4859,1093,1117,-54,78,-136
13850,161,-2169,1772,-840,5804,1273,701,-54,78,-136
13860,162,-2402,2465,-703,6795,641,383,-51,71,-145
13870,163,-2590,3787,-867,8489,2589,429,-51,71,-145
13880,164,-2493,5878,-1141,10039,3957,196,-49,63,-157
13890,165,-697,5977,-257,9472,5267,-537,-49,63,-157
13900,166,715,6452,-675,7401,6204,-270,-42,36,-176
13910,167,-2602,7733,-2358,5384,5269,247,-42,36,-176
13920,168,-1503,5125,-483,3534,1716,-882,-22,24,-186
13930,169,-1925,3933,3016,214,-1828,-1024,-22,24,-186
13940,170,-1656,2176,1823,-2569,-808,-1882,-18,10,-192
13950,171,-3439,1831,-30,-3250,-1214,-2186,-18,10,-192
13960,172,-4887,2678,210,-2495,-7510,-2249,-24,14,-188
13970,173,-5973,6393,8438,-2801,-10169,-951,-24,14,-188
13980,174,8840,835,11608,-8838,1499,-567,-43,25,-185
13990,175,9939,-8820,10611,-14377,-347,2918,-43,25,-185
14000,176,14781,-16441,10170,-16911,4542,7548,-46,42,-168
14010,177,1111,-17576,1900,-9833,-2783,4448,-46,42,-168
14020,178,-11576,-9250,384,-10244,523,553,-39,77,-153
14030,179,-7981,-8656,-4280,-9710,3508,-5613,-39,77,-153
14040,180,-8042,-11025,-8973,-4767,3236,-1596,-42,98,-134
14050,181,1796,-5050,-8213,691,494,42,-42,98,-134
14060,182,1356,-6781,-3326,291,-1769,-348,-45,103,-127
14070,183,6103,-8237,-3814,-513,-2999,-738,-45,103,-127
14080,184,11675,-14392,-1089,-1391,-2941,-588,-46,96,-124
14090,185,5190,-10096,-1726,1226,2708,788,-46,96,-124
14100,186,2790,-3139,-2690,1139,3637,858,-52,102,-118
14110,187,2206,-2382,-4569,-29,2396,-4,-52,102,-118
14120,188,1687,-3560,-5221,34,353,-968,-47,99,-131
14130,189,758,-4641,-4639,815,-1015,-1422,-47,99,-131
14140,190,660,-4964,-3951,1830,-1667,-1516,-43,99,-127
14150,191,1085,-5664,-2666,2773,-2017,-1570,-43,99,-127
14160,192,1402,-6359,920,3548,-882,-1040,-54,94,-128
14170,193,594,-5166,1282,3511,-21,-599,-54,94,-128
14180,194,640,-3599,353,2571,100,-512,-59,87,-137
14190,195,1028,-2795,-1416,1568,-158,-386,-59,87,-137
14200,196,947,-2831,-1417,968,-429,-123,-55,85,-139
14210,197,821,-2652,-1737,1235,-178,328,-55,85,-139
14220,198,1512,-2872,-1256,1916,294,794,-57,81,-145
14230,199,1347,-2028,-933,2575,329,1355,-57,81,-145
14240,200,239,-719,-382,3546,509,1810,-53,77,-149
14250,201,-764,639,195,4829,1078,2229,-53,77,-149
14260,202,-1119,2866,-148,6214,1795,2646,-48,76,-150
14270,203,-1034,4302,-407,7775,2602,3014,-48,76,-150
14280,204,-953,5070,-177,8703,2830,3260,-39,65,-169
14290,205,-2131,6396,-510,8765,3277,3345,-39,65,-169
14300,206,-457,5590,780,8362,4014,3088,-26,54,-176
14310,207,380,5415,1893,5850,3735,2397,-26,54,-176
14320,208,-477,4335,2409,2541,2384,2171,-22,32,-184
14330,209,-1060,4066,175,-847,1585,1199,-22,32,-184
14340,210,-1236,3191,-1131,-2140,-893,234,-9,27,-193
14350,211,-1604,2094,5,-3308,-1929,-546,-9,27,-193
14360,212,-2890,3022,-551,-3258,-3619,-1358,-12,30,-190
14370,213,-1092,2526,2849,-2127,-4028,-1890,-12,30,-190
14380,214,129,4881,2929,-1359,-8533,-1722,-16,36,-184
14390,215,-3573,-2135,12621,-5006,-16462,-3651,-16,36,-184
14400,216,-7209,-7741,25309,-14333,-11970,-4336,-45,43,-177
14410,217,1976,-12363,6177,-19626,-3350,-5352,-45,43,-177
14420,218,14201,-17114,-4555,-15182,908,-4239,-80,66,-150
14430,219,32767,-20045,-28329,-10354,-59,-3209,-80,66,-150
14440,220,14522,-8438,-7224,3522,3635,1080,-80,80,-118
14450,221,4260,-848,71,5400,3842,1105,-80,80,-118
14460,222,450,-1902,2178,2447,2587,229,-73,81,-125
14470,223,2565,-6974,518,-1007,2249,-1526,-73,81,-125
14480,224,6340,-11307,-2237,-3583,1458,-1036,-78,74,-134
14490,225,11259,-16662,-3296,-2745,3769,822,-78,74,-134
14500,226,4466,-7839,-5068,-1783,5476,3097,-74,78,-130
14510,227,-583,-2913,-5891,-1650,4487,3303,-74,78,-130
14520,228,-1521,-2981,-5952,-1787,2182,2377,-66,84,-136
14530,229,-2029,-3218,-5201,-1434,751,1746,-66,84,-136
14540,230,-1105,-4318,-5262,-1033,-351,719,-49,93,-139
14550,231,99,-5621,-4315,-367,-1278,83,-49,93,-139
14560,232,1348,-6665,-2971,616,-1101,-97,-50,96,-142
14570,233,2000,-6839,-1940,1365,-504,109,-50,96,-142
14580,234,1916,-5969,-1457,2212,4,418,-53,91,-133
14590,235,1177,-4873,-1134,2586,72,642,-53,91,-133
14600,236,868,-3336,-1036,3246,77,608,-51,89,-135
14610,237,239,-1371,-641,3744,442,661,-51,89,-135
14620,238,-1015,424,-492,4046,848,762,-46,88,-144
14630,239,-2035,1661,-144,4220,669,331,-46,88,-144
14640,240,-2218,2652,-449,4705,906,-219,-49,81,-153
14650,241,-1611,3552,-461,5481,726,-428,-49,81,-153
14660,242,-2263,5750,-1240,7017,1407,-849,-45,69,-161
14670,243,-2103,6018,-260,8639,3664,-1237,-45,69,-161
14680,244,-1797,6700,-920,8928,5521,-1087,-42,52,-176
14690,245,-861,5516,-1154,7492,6318,-1004,-42,52,-176
14700,246,81,5399,-618,5003,3677,-1245,-28,28,-192
14710,247,-840,4077,-1595,2877,888,-1215,-28,28,-192
14720,248,-1591,3226,1920,726,-1472,-1585,-24,18,-192
14730,249,-1097,2372,2857,-2507,-1752,-1714,-24,18,-192
14740,250,288,736,321,-3978,-1222,-1435,-25,15,-189
14750,251,59,74,245,-4680,-2051,-1128,-25,15,-189
14760,252,-418,-743,1396,-5655,-1656,-1429,-30,22,-182
14770,253,-1381,-3088,939,-7100,-4584,-2187,-30,22,-182
14780,254,-4338,-1314,2944,-5857,-9732,-909,-38,36,-178
14790,255,14710,-19526,32767,-13265,-1076,5318,-38,36,-178
14800,0,30221,-13246,-1687,-12110,-3781,8325,-52,54,-166
14810,1,4427,-12563,-3734,-8158,981,5711,-52,54,-166
14820,2,-6494,-8338,-5222,-4715,4899,2428,-45,81,-147
14830,3,-12306,-10989,-3847,-4739,2189,-612,-45,81,-147
14840,4,-10497,-8444,-3062,59,1453,-3276,-41,99,-137
14850,5,1227,-4645,-2268,2810,191,-1395,-41,99,-137
14860,6,-611,-4616,-404,1602,-403,-563,-38,98,-142
14870,7,1579,-9527,1692,-2106,-1040,-1854,-38,98,-142
14880,8,13105,-12273,-2596,-6863,-4133,-864,-37,97,-137
14890,9,5524,-15687,-5550,-1846,-373,-16,-37,97,-137
14900,10,5084,-6663,-5701,2508,3687,537,-46,98,-128
14910,11,1257,-317,-4580,2014,1642,-140,-46,98,-128
14920,12,5322,-1536,-4101,830,-1449,-1888,-46,102,-130
14930,13,7915,-3934,-3514,429,-3244,-2126,-46,102,-130
14940,14,5424,-6046,-814,2161,-1218,-1499,-49,95,-133
14950,15,3934,-4990,181,2869,107,-813,-49,95,-133
14960,16,2377,-5779,122,2076,-121,-563,-53,95,-135
14970,17,1650,-5578,1400,1148,-218,-291,-53,95,-135
14980,18,682,-5094,-131,1149,395,12,-63,89,-141
14990,19,67,-4343,-1340,1052,61,75,-63,89,-141
15000,20,668,-3747,-1893,1239,43,174,-57,83,-143
15010,21,704,-3340,-1638,1880,557,597,-57,83,-143
15020,22,425,-2534,-1993,2575,816,1085,-45,81,-141
15030,23,-151,-1291,-836,3700,1086,1563,-45,81,-141
15040,24,-817,751,-724,5620,2229,2486,-50,78,-142
15050,25,-1833,2671,-318,7253,3407,3405,-50,78,-142
15060,26,-2629,4770,-155,8676,5044,3687,-44,66,-156
15070,27,-3958,6164,387,8783,5793,3998,-44,66,-156
15080,28,-3822,7837,1302,6312,4585,3723,-23,49,-171
15090,29,-3070,8578,2233,1448,505,2444,-23,49,-171
15100,30,-1034,6357,1107,-2133,-1797,1306,-13,43,-181
15110,31,-201,3428,200,-3190,-2183,904,-13,43,-181
15120,32,-675,2540,-341,-2901,-1734,603,-11,49,-175
15130,33,-27,1842,-576,-2299,-1966,122,-11,49,-175
15140,34,1125,1705,-3658,-498,-6038,-600,-16,56,-158
15150,35,3529,281,1885,-310,-10894,-1313,-16,56,-158
15160,36,217,80,19936,1778,-1093,-573,-16,46,-148
15170,37,-2101,-4462,-6824,-3038,1886,-2307,-16,46,-148
15180,38,5217,-8457,12268,7389,1257,-3204,-22,30,-136
15190,39,4790,-12256,8045,1479,882,-2955,-22,30,-136
15200,40,4336,-13110,7793,1347,1328,-5936,-25,15,-137
15210,41,19445,-18464,10182,-7281,-5176,-4380,-25,15,-137
15220,42,18985,-4367,2508,-8125,-5975,-410,-30,12,-144
15230,43,900,-2823,5589,-6583,-728,-195,-30,12,-144
15240,44,2650,-6725,-4323,-2441,1397,-697,-31,25,-127
15250,45,1635,-10668,283,-411,1081,-1204,-31,25,-127
15260,46,2657,-11536,1422,-1321,1182,-1211,-17,23,-119
15270,47,3104,-9925,820,-2102,2487,-678,-17,23,-119
15280,48,5315,-8898,-38,-1355,6072,429,-7,25,-109
15290,49,2315,-5968,-2574,-1262,6879,1385,-7,25,-109
15300,50,-1087,-4642,-5458,-465,5168,1170,1,21,-101
15310,51,-333,-4598,-5365,-378,483,633,1,21,-101
15320,52,3397,-9444,-1382,1594,247,853,3,19,-103
15330,53,1017,-5842,-896,4949,2738,2181,3,19,-103
15340,54,-733,-4247,-3,4946,1576,1521,-8,14,-112
15350,55,-880,-4096,1579,3064,-1206,326,-8,14,-112
15360,56,-314,-3985,3037,946,-3047,-25,-1,5,-119
15370,57,758,-2745,3685,-646,-3275,-145,-1,5,-119
15380,58,1729,-2529,1869,-1785,-832,-169,-7,9,-123
15390,59,-475,-1538,1323,-1440,-207,-6,-7,9,-123
15400,60,-540,-1183,60,-280,363,-88,7,13,-117
15410,61,-307,251,-873,1246,301,-26,7,13,-117
15420,62,-223,1042,-823,2833,417,-44,15,17,-107
15430,63,-7088,5036,-4342,4586,951,-692,15,17,-107
15440,64,-2589,5088,2332,4965,1081,-1058,14,26,-90
15450,65,-289,4888,2857,3823,2618,-1194,14,26,-90
15460,66,-2520,7095,-1405,504,921,-1283,6,34,-78
15470,67,-3564,3616,-843,-421,828,-1854,6,34,-78
15480,68,4800,-3327,-1247,692,1172,-680,16,38,-34
15490,69,191,401,-961,2161,883,887,16,38,-34
15500,70,-2668,2005,-1189,2053,223,-590,21,49,69
15510,71,7830,1033,-2134,1287,-470,-934,21,49,69
15520,72,-8617,8513,15992,-1309,-2924,-1086,1,39,127
15530,73,-17191,15713,22838,515,-6211,-445,1,39,127
15540,74,3291,3652,-635,-5467,1878,-1135,19,-3,73
15550,75,15845,-9959,6573,-4364,2916,3195,19,-3,73
15560,76,7113,-4504,4264,-4160,5259,4901,62,-50,68
15570,77,5639,-13645,7894,-4054,4531,5534,62,-50,68
15580,78,-71,-22053,-1638,-3445,-239,5694,0,-70,172
15590,79,-13903,-15117,-449,-4053,787,1326,0,-70,172
15600,80,-8963,-8766,1038,-517,-1541,698,-192,-2,218
15610,81,-2874,-6596,4391,1652,-1014,489,-192,-2,218
15620,82,982,-7009,3014,2614,-1139,1076,-135,15,149
15630,83,3905,-6291,3296,2289,-1012,1641,-135,15,149
15640,84,4680,-8584,2585,906,-830,2074,-84,-4,106
15650,85,2347,-7634,1995,230,-1628,2168,-84,-4,106
15660,86,-1,-6617,1283,-410,-1969,1553,-79,9,61
15670,87,-88,-5753,296,-585,-1599,488,-79,9,61
15680,88,1590,-5881,-209,-594,-1490,-120,-82,28,28
15690,89,2458,-5308,758,-670,-1359,-461,-82,28,28
15700,90,2406,-5222,1285,-1002,-1219,-608,-77,21,25
15710,91,1899,-4939,1047,-1246,-1359,-344,-77,21,25
15720,92,1389,-5002,1831,-1379,-1539,597,-87,25,43
15730,93,560,-4319,1570,-1776,-1582,1165,-87,25,43
15740,94,832,-3744,1204,-1943,-1549,1245,-124,34,60
15750,95,-1514,-2816,878,-2066,-1540,1523,-124,34,60
15760,96,825,-2563,16,-2042,-1283,1328,-151,51,51
15770,97,-276,-2281,178,-1893,-1475,1330,-151,51,51
15780,98,539,-2118,4,-1444,-1436,1547,-161,65,37
15790,99,83,-977,1379,-1016,-1507,1719,-161,65,37
15800,100,-343,561,3419,-807,-1507,1818,-160,70,36
15810,101,-634,1451,3391,-466,-1410,1773,-160,70,36
15820,102,-791,1318,2809,-335,-1567,1698,-157,73,35
15830,103,-405,1458,1884,361,-1307,1551,-157,73,35
15840,104,-516,1591,1555,598,-1057,1257,-153,67,51
15850,105,882,1609,249,619,-797,978,-153,67,51
15860,106,1569,2099,-478,1787,-525,799,-149,57,45
15870,107,1740,2192,-465,2045,-361,626,-149,57,45
15880,108,3945,3277,5661,1565,-757,296,-140,58,22
15890,109,3196,4387,6697,1111,-1159,82,-140,58,22
15900,110,-811,2524,5243,1008,-1299,-496,-130,66,0
15910,111,-1996,-1333,3512,945,-820,-1516,-130,66,0
15920,112,-946,-2845,2999,802,-270,-2612,-124,42,28
15930,113,1746,-2682,3162,672,-307,-3644,-124,42,28
15940,114,1303,-8024,4384,967,58,-4554,-115,13,33
15950,115,6825,-20166,8554,-3764,1287,-4277,-115,13,33
15960,116,12246,-15961,-1294,-4526,101,-432,-96,4,36
15970,117,2978,-11619,2270,-2759,470,376,-96,4,36
15980,118,259,-8569,1128,-784,1728,-227,-82,-28,74
15990,119,254,-7909,157,61,1650,-803,-82,-28,74
16000,120,977,-8215,-345,337,1560,-759,-82,-34,82
16010,121,2294,-8387,-379,-167,1742,-255,-82,-34,82
16020,122,1737,-7263,-1382,-1163,1661,250,-86,-30,78
16030,123,486,-6073,-1357,-1575,1250,315,-86,-30,78
16040,124,271,-6143,-623,-1492,1242,309,-94,-30,82
16050,125,-389,-6578,-549,-992,1140,425,-94,-30,82
16060,126,-1441,-7186,-994,-395,945,544,-96,-14,74
16070,127,-1519,-7253,-1013,20,861,709,-96,-14,74
16080,128,-2016,-6724,-710,385,1037,771,-96,-8,66
16090,129,-2068,-5582,-827,410,1293,690,-96,-8,66
16100,130,-1346,-3637,694,303,1373,563,-92,-4,68
16110,131,-887,-1985,955,-86,1194,336,-92,-4,68
16120,132,-637,-1104,1524,-456,1024,126,-93,1,67
16130,133,-823,286,1944,-685,904,-53,-93,1,67
16140,134,-463,859,1736,-1098,771,-189,-95,-1,55
16150,135,-446,1664,1312,-1208,681,-258,-95,-1,55
16160,136,-445,2192,1186,-910,575,-294,-105,5,61
16170,137,-640,2790,988,-540,450,-452,-105,5,61
16180,138,-599,3268,752,-345,305,-748,-114,22,64
16190,139,-303,3137,493,-244,248,-1066,-114,22,64
16200,140,-80,2378,-320,249,281,-1398,-137,37,73
16210,141,214,1792,-906,872,292,-1643,-137,37,73
16220,142,689,1547,-178,1279,210,-1836,-162,58,76
16230,143,1082,1652,-45,1684,-54,-1856,-162,58,76
16240,144,763,1439,489,2101,-538,-1902,-169,65,73
16250,145,449,499,30,2299,-921,-1770,-169,65,73
16260,146,555,904,861,2352,-944,-1551,-123,29,75
16270,147,-1770,1883,19480,1044,-478,-781,-123,29,75
16280,148,-4537,3822,8184,-583,1732,-566,-84,22,42
16290,149,3128,198,5658,-1893,2197,473,-84,22,42
16300,150,9877,-6696,3768,-4427,2390,3542,-35,-5,43
16310,151,7832,-13622,5476,-3424,2348,5617,-35,-5,43
16320,152,4643,-20635,-4032,-495,335,5532,-41,-7,47
16330,153,-16746,-11158,-8009,1079,2079,2881,-41,-7,47
16340,154,-8410,-5486,1562,-2300,1283,283,-136,66,12
16350,155,-14658,-5172,4706,-1666,-850,480,-136,66,12
16360,156,-4123,-5261,-4770,-1852,-1637,-220,-77,59,-23
16370,157,-2572,-9676,7458,-663,-1027,-49,-77,59,-23
16380,158,-3462,-13284,-4957,1356,-1186,-118,-4,92,0
16390,159,6754,-12003,-434,260,-365,-331,-4,92,0
16400,160,5243,-9400,-6150,-538,-1575,653,60,72,-44
16410,161,1976,-5407,-4807,1722,-2158,-696,60,72,-44
16420,162,5912,-4226,-1162,1194,-1125,-1440,17,81,-119
16430,163,5846,-4318,583,517,-832,-1764,17,81,-119
16440,164,5657,-5000,1018,193,135,-1706,-3,83,-145
16450,165,3966,-5453,-14,-82,637,-1311,-3,83,-145
16460,166,2989,-5675,-1139,-140,-158,-869,-14,86,-150
16470,167,1429,-6418,29,-253,-1407,-395,-14,86,-150
16480,168,859,-7158,830,535,-363,146,-20,82,-152
16490,169,-457,-5912,-874,1597,724,501,-20,82,-152
16500,170,-475,-4677,-1633,2486,433,649,-16,80,-162
16510,171,-632,-3366,279,2827,121,768,-16,80,-162
16520,172,326,-2185,-253,2684,902,1163,-16,80,-166
16530,173,-309,-336,-1394,3279,1298,1629,-16,80,-166
16540,174,-444,1422,-1066,4189,1605,1914,-12,72,-174
16550,175,-1527,3603,-460,4738,1804,2268,-12,72,-174
16560,176,-1854,5192,463,5071,1754,2250,-4,64,-174
16570,177,-2357,7721,5991,386,-1683,1997,-4,64,-174
16580,178,-1065,4960,844,-817,-1501,1881,2,52,-184
16590,179,809,4883,864,-522,-453,1853,2,52,-184
16600,180,280,4379,695,-601,336,1907,1,57,-187
16610,181,-271,3847,117,-758,530,1635,1,57,-187
16620,182,-1279,3323,-263,-787,185,1177,7,55,-179
16630,183,-320,2381,547,-1015,-191,707,7,55,-179
16640,184,-255,1775,598,-1521,-350,189,5,59,-187
16650,185,2471,3390,2815,-1483,-4664,-388,5,59,-187
16660,186,878,2330,12451,-2532,-4512,-707,3,63,-179
16670,187,-5729,1586,12651,-2432,-2727,-1240,3,63,-179
16680,188,-10032,-2238,-10,-3949,-1856,-2959,-11,65,-175
16690,189,-8753,-9737,1574,-4643,-2329,-6238,-11,65,-175
16700,190,-89,-13545,1691,-7700,-6299,-8820,-18,70,-166
16710,191,16114,-32767,6777,-9737,-6859,-7471,-18,70,-166
16720,192,32767,-14732,-12985,-4912,-200,152,-41,81,-157
16730,193,5675,-750,-6072,4151,4070,1462,-41,81,-157
16740,194,2935,221,524,6646,5498,565,-49,83,-147
16750,195,-1521,-3472,2187,4084,4631,-161,-49,83,-147
16760,196,-2157,-10796,2294,-1746,-2180,-1558,-37,73,-159
16770,197,4424,-14410,1838,-5523,-4358,-2404,-37,73,-159
16780,198,5247,-15984,-3103,-2247,1899,199,-40,82,-162
16790,199,208,-6173,-8314,2583,6374,1633,-40,82,-162
16800,200,-2283,-2778,-5370,4007,3047,1116,-43,83,-151
16810,201,-1349,-3891,1150,1922,-298,596,-43,83,-151
16820,202,-429,-5473,3037,-863,-1105,758,-31,79,-167
16830,203,1280,-6320,1112,-2174,-214,1074,-31,79,-167
16840,204,935,-5684,-844,-1920,642,1119,-37,79,-159
16850,205,1563,-4665,-2691,-610,961,759,-37,79,-159
16860,206,2885,-4665,-1682,633,557,657,-34,86,-160
16870,207,2063,-4043,-414,1238,552,771,-34,86,-160
16880,208,1270,-2886,-777,1631,658,853,-22,86,-164
16890,209,-120,-862,-1090,2310,552,941,-22,86,-164
16900,210,-1262,1458,-503,3563,1026,395,-27,81,-167
16910,211,-1196,2338,436,4188,1552,-263,-27,81,-167
16920,212,-972,3557,344,4040,1251,-644,-25,75,-171
16930,213,-1414,5672,-1057,4219,684,-1237,-25,75,-171
16940,214,-1146,7065,-169,4225,-188,-1944,-27,67,-179
16950,215,-1003,6316,2015,2429,499,-2475,-27,67,-179
16960,216,-1319,4763,1912,-333,57,-2533,-25,53,-187
16970,217,-1780,3627,-188,-2772,-1263,-2511,-25,53,-187
16980,218,-1235,2642,-1421,-3779,-2028,-2136,-28,54,-184
16990,219,-676,1865,-1078,-3601,-1346,-1650,-28,54,-184
17000,220,-1540,914,-683,-2573,-760,-1015,-34,64,-180
17010,221,-11512,2638,2632,1552,-1247,-368,-34,64,-180
17020,222,3394,6961,29008,2740,137,-1845,-40,66,-176
17030,223,4895,2668,292,-8170,2978,84,-40,66,-176
17040,224,15299,-3855,4174,-11464,-759,2598,-41,61,-177
17050,225,15050,-16120,3041,-13524,-2305,6826,-41,61,-177
17060,226,64,-22830,-6286,-7945,-3408,7139,-36,92,-158
17070,227,-8613,-31019,1393,-6689,3766,3922,-36,92,-158
17080,228,-20113,-8237,-21992,-572,-577,1457,-28,112,-138
17090,229,-6228,-2161,-1047,9564,1989,-454,-28,112,-138
17100,230,-1325,1897,1879,10236,3808,-49,-13,117,-139
17110,231,38,-4669,3979,6682,670,801,-13,117,-139
17120,232,3462,-13952,11290,-1219,-3436,107,-18,102,-154
17130,233,8244,-14760,10836,-9158,-6740,24,-18,102,-154
17140,234,4963,-10171,-5896,-7175,-1329,-163,-14,102,-154
17150,235,3965,-5625,-12910,-1265,2520,218,-14,102,-154
17160,236,3561,-3148,-9516,3840,857,-1101,-18,112,-136
17170,237,4702,-2695,-1178,3891,-677,-1328,-18,112,-136
17180,238,3756,-3418,747,2541,-1588,-1281,-20,116,-142
17190,239,2935,-5538,1880,1016,-2491,-1094,-20,116,-142
17200,240,1676,-6686,3021,189,-1048,-815,-25,103,-147
17210,241,525,-7605,1591,-452,-1201,-432,-25,103,-147
17220,242,454,-7051,207,-739,-1528,-321,-28,104,-146
17230,243,1255,-6397,-1245,393,-105,-74,-28,104,-146
17240,244,465,-5743,-2076,2111,1464,358,-30,100,-148
17250,245,-193,-4371,-2465,3529,2021,785,-30,100,-148
17260,246,-284,-1875,-2593,4285,2002,1247,-30,100,-150
17270,247,-179,836,-2943,5093,1832,1685,-30,100,-150
17280,248,-570,2518,-1723,5596,1478,1944,-15,93,-159
17290,249,-744,3658,-824,5622,1013,2235,-15,93,-159
17300,250,-1657,5474,-360,6169,967,2460,-17,79,-171
17310,251,-1933,7803,10144,4777,-2653,2207,-17,79,-171
17320,252,-1270,7118,4692,-2030,-193,1911,-10,64,-182
17330,253,271,5120,-7,-933,426,1744,-10,64,-182
17340,254,590,4868,-517,-576,1447,1619,-13,67,-175
17350,255,219,4379,-651,-720,748,1231,-13,67,-175
17360,0,-1028,3458,-4,-910,148,817,-2,70,-174
17370,1,-494,2853,70,-1215,-33,415,-2,70,-174
17380,2,-387,2016,1097,-1897,-989,35,-8,70,-178
17390,3,1652,3657,4803,-2592,-5308,-500,-8,70,-178
17400,4,881,2058,9394,-4406,-3999,-604,-7,77,-169
17410,5,-5316,2503,12376,-1969,-3488,-654,-7,77,-169
17420,6,-17437,-5197,8804,-4585,-4145,-2324,-14,82,-166
17430,7,-13119,-9895,5367,-7538,-596,-6562,-14,82,-166
17440,8,6988,-10558,-9450,-12499,-1620,-9967,-29,87,-157
17450,9,24734,-30557,-3962,-10669,-13211,-5525,-29,87,-157
17460,10,19207,-16522,-10641,782,-455,1351,-53,103,-129
17470,11,9053,-1093,-3389,7824,2623,533,-53,103,-129
17480,12,4180,293,4228,8874,3457,257,-55,97,-123
17490,13,1096,-2260,5686,5171,3246,-293,-55,97,-123
17500,14,-665,-9130,5958,-1771,-402,-1527,-52,88,-138
17510,15,3038,-10580,773,-5876,-1441,-1876,-52,88,-138
17520,16,2694,-13774,-3951,-3880,1467,-409,-58,84,-138
17530,17,3534,-11476,-10359,554,2882,1278,-58,84,-138
17540,18,-208,-5908,-5871,4016,2609,1342,-49,93,-131
17550,19,-152,-4180,-36,3680,1845,1319,-49,93,-131
17560,20,-518,-3305,1496,1369,954,1127,-47,85,-147
17570,21,429,-3962,982,-1013,-23,954,-47,85,-147
17580,22,1386,-5015,-1001,-1802,-515,1025,-39,91,-147
17590,23,584,-5121,-2531,-797,-160,853,-39,91,-147
17600,24,658,-5258,-1846,879,536,755,-36,92,-146
17610,25,705,-4578,-494,1367,871,710,-36,92,-146
17620,26,747,-3774,-135,1160,849,736,-34,90,-148
17630,27,-115,-3523,-371,770,283,576,-34,90,-148
17640,28,468,-2935,-764,912,-337,367,-36,86,-154
17650,29,596,-1362,-874,1913,-335,357,-36,86,-154
17660,30,-162,748,-294,3485,580,261,-34,88,-150
17670,31,-676,2217,369,4037,941,-27,-34,88,-150
17680,32,-748,3506,-502,4483,416,-352,-30,82,-164
17690,33,-1137,4681,635,5197,1485,-1026,-30,82,-164
17700,34,-593,6227,-111,5298,2063,-1530,-33,65,-169
17710,35,-540,6782,107,3729,1276,-2115,-33,65,-169
17720,36,-694,5676,1260,726,244,-2349,-34,56,-184
17730,37,-418,3566,-440,-2040,-885,-2269,-34,56,-184
17740,38,-930,2321,250,-3398,-1910,-1954,-33,53,-179
17750,39,25,1525,-657,-3630,-1361,-1467,-33,53,-179
17760,40,-77,319,472,-3284,-295,-895,-41,55,-173
17770,41,-3525,-2427,-744,-2439,-455,568,-41,55,-173
17780,42,-9866,3693,4274,2877,-1248,-383,-36,62,-164
17790,43,5084,1468,29949,-174,3093,500,-36,62,-164
17800,44,5058,-2341,1001,-8364,2390,1780,-37,63,-167
17810,45,13406,-10090,8916,-13622,-2880,4583,-37,63,-167
17820,46,7170,-20821,10501,-14373,-1506,6819,-34,78,-162
17830,47,-3162,-21432,-3536,-9507,-41,4499,-34,78,-162
17840,48,-19501,-15256,-29419,-4497,-2517,1114,-28,106,-126
17850,49,-6215,-6156,-1925,7676,-870,-1260,-28,106,-126
17860,50,-3231,1823,3405,8066,-857,-856,-18,114,-116
17870,51,44,-3903,4680,5509,313,-210,-18,114,-116
17880,52,2941,-12467,7421,-298,-2352,76,-24,102,-138
17890,53,8521,-13261,2417,-5137,-1908,643,-24,102,-138
17900,54,3006,-10375,-7507,-3418,-1990,619,-26,100,-142
17910,55,2621,-5895,-9960,1586,546,88,-26,100,-142
17920,56,4647,-2908,-4015,4039,440,-1020,-30,106,-132
17930,57,5316,-3001,686,2674,-1537,-1527,-30,106,-132
17940,58,5911,-4464,4733,1158,-1124,-1461,-27,103,-143
17950,59,4376,-4847,1997,-208,-323,-890,-27,103,-143
17960,60,2489,-5078,-498,-1576,-963,-878,-30,98,-140
17970,61,1550,-6216,-1030,-890,-881,-754,-30,98,-140
17980,62,893,-6549,-1083,257,-631,-505,-40,94,-142
17990,63,-294,-6216,-819,1333,-45,-104,-40,94,-142
18000,64,-912,-5125,-1643,2184,649,18,-38,94,-136
18010,65,-614,-4358,-1431,2807,647,110,-38,94,-136
18020,66,-192,-3619,-726,3418,750,345,-37,99,-139
18030,67,88,-1412,-877,4297,1366,853,-37,99,-139
18040,68,-464,454,-465,4970,1732,1359,-31,87,-147
18050,69,-921,2267,-406,5195,1884,1705,-31,87,-147
18060,70,-1364,3609,-192,5254,1953,2089,-33,83,-159
18070,71,-2501,5081,-122,5489,2169,2510,-33,83,-159
18080,72,-2650,5674,363,5139,2007,2534,-20,64,-170
18090,73,-1437,5900,-82,3463,1713,2588,-20,64,-170
18100,74,-676,5966,4472,-1024,-963,1891,-13,63,-179
18110,75,83,3999,-527,-2218,-111,1672,-13,63,-179
18120,76,-168,3546,-781,-2374,-540,1305,-14,60,-170
18130,77,-587,2595,-751,-2037,-655,992,-14,60,-170
18140,78,-298,2124,-170,-1833,-41,517,-6,66,-170
18150,79,438,1802,-748,-1909,-221,-55,-6,66,-170
18160,80,1751,2552,-3110,-1123,-3376,-708,-10,70,-168
18170,81,8374,516,10669,-65,-8558,-1380,-10,70,-168
18180,82,-2671,2051,16446,-3463,-3662,-681,-15,75,-171
18190,83,-4878,-4265,-566,-3413,-2601,-2752,-15,75,-171
18200,84,-7711,-11498,4912,-4884,-5186,-5743,-33,79,-159
18210,85,1587,-20224,15073,-8250,-4608,-7055,-33,79,-159
18220,86,28549,-24539,4946,-11565,-1963,-4262,-47,85,-143
18230,87,12594,-10679,-14180,-5559,-1718,938,-47,85,-143
18240,88,4817,-2949,-7294,5842,2472,371,-59,93,-127
18250,89,1039,-1150,1140,8001,2306,-290,-59,93,-127
18260,90,741,-6300,6125,4058,1194,-762,-53,85,-135
18270,91,628,-10398,5292,-1572,-502,-1199,-53,85,-135
18280,92,6276,-17225,2713,-3104,1766,-570,-51,79,-137
18290,93,3546,-11432,-2895,-1438,4916,1056,-51,79,-137
18300,94,81,-4076,-10723,798,4392,1465,-55,77,-137
18310,95,-1552,-3292,-5779,2067,-123,481,-55,77,-137
18320,96,-651,-4880,1004,791,-1975,319,-44,82,-144
18330,97,141,-6510,2666,-551,-1477,850,-44,82,-144
18340,98,1738,-7189,1952,-1170,280,1239,-44,76,-138
18350,99,1485,-6938,-1327,-800,838,1295,-44,76,-138
18360,100,2147,-5669,-1568,528,1417,957,-43,79,-141
18370,101,2319,-4444,-1522,1414,1189,798,-43,79,-141
18380,102,1989,-3435,-1295,1676,846,796,-43,81,-141
18390,103,565,-2338,-1117,1731,522,787,-43,81,-141
18400,104,195,-1469,-652,1711,54,701,-41,77,-143
18410,105,-323,-91,-270,1905,-364,548,-41,77,-143
18420,106,-920,1488,73,2557,216,179,-33,67,-153
18430,107,-1198,2547,-208,3521,731,-491,-33,67,-153
18440,108,-894,3582,-81,4601,1922,-930,-34,72,-156
18450,109,-902,5438,-940,5562,2481,-1363,-34,72,-156
18460,110,-1658,6516,-1130,5182,2061,-2011,-29,57,-169
18470,111,-978,6041,-535,2971,565,-2717,-29,57,-169
18480,112,-599,4328,211,194,-91,-2698,-34,48,-172
18490,113,-1889,2720,803,-1142,-1397,-2499,-34,48,-172
18500,114,-777,2173,780,-2219,-1102,-2251,-34,42,-172
18510,115,-323,1774,125,-2520,-1122,-1701,-34,42,-172
18520,116,-1019,1448,117,-2328,-880,-1220,-38,42,-170
18530,117,-1054,740,464,-2037,-357,-824,-38,42,-170
18540,118,-1800,-1467,1548,-1868,-404,-150,-46,46,-164
18550,119,-12072,1287,7487,47,-327,1364,-46,46,-164
18560,120,7937,2111,13238,-2883,3643,-368,-43,53,-161
18570,121,11489,-3995,6709,-9457,1599,2322,-43,53,-161
18580,122,13760,-12091,8863,-13078,-3313,5433,-39,51,-159
18590,123,3423,-14811,-1572,-10910,-687,6508,-39,51,-159
18600,124,-4724,-15481,-2492,-3839,-402,5202,-34,84,-142
18610,125,-12650,-20160,-15201,-7843,-486,1497,-34,84,-142
18620,126,-8230,-9243,-11124,3841,561,-1370,-25,93,-133
18630,127,-3030,-573,1122,7524,892,-1125,-25,93,-133
18640,128,526,-5521,3494,6647,2254,-63,-28,96,-132
18650,129,2600,-12370,5037,-693,-2703,-256,-28,96,-132
18660,130,7580,-12738,3722,-4600,-4065,-420,-30,82,-144
18670,131,2809,-9508,-5522,-1501,-1555,179,-30,82,-144
18680,132,2819,-4983,-6038,991,-575,-552,-31,89,-133
18690,133,5235,-3632,-4214,2322,-308,-1056,-31,89,-133
18700,134,5229,-4510,262,2093,-1619,-1462,-35,93,-133
18710,135,5163,-5353,1621,2085,-453,-1054,-35,93,-133
18720,136,2548,-6154,1273,654,-787,-1070,-44,90,-142
18730,137,1689,-6587,-160,-43,-758,-1023,-44,90,-142
18740,138,892,-6168,-1109,426,-513,-826,-38,82,-136
18750,139,-216,-5570,-2076,1553,-348,-502,-38,82,-136
18760,140,-447,-4776,-897,2579,3,-192,-45,79,-141
18770,141,-777,-4059,110,2741,133,22,-45,79,-141
18780,142,-465,-3567,258,2526,181,243,-42,76,-146
18790,143,418,-1979,-194,2634,417,484,-42,76,-146
18800,144,982,-250,-155,3512,1890,1060,-45,71,-151
18810,145,-408,1225,-489,4027,2001,1494,-45,71,-151
18820,146,-1607,2537,-522,4457,1940,1678,-40,66,-154
18830,147,-1878,3693,-389,4927,1844,1857,-40,66,-154
18840,148,-2023,4728,41,4964,1750,2084,-29,63,-165
18850,149,-1218,4818,-1467,4122,2267,2217,-29,63,-165
18860,150,-3141,6172,7998,1536,-1444,2225,-25,47,-175
18870,151,-1390,4149,533,-2480,99,1759,-25,47,-175
18880,152,-97,3085,414,-2567,-1155,1549,-26,44,-168
18890,153,-466,2349,-823,-2677,-955,1252,-26,44,-168
18900,154,-805,1963,-649,-2016,-1046,879,-22,52,-174
18910,155,99,1666,-264,-1264,-642,518,-22,52,-174
18920,156,715,2285,-1194,-382,-1439,-37,-24,58,-162
18930,157,4438,2197,6908,1936,-3585,-788,-24,58,-162
18940,158,569,6270,20301,-2949,-3575,-138,-31,59,-163
18950,159,-8680,-2703,2264,-4231,-1921,-2131,-31,59,-163
18960,160,-10095,-3115,-1193,-2151,-3114,-3822,-36,64,-160
18970,161,-3447,-9692,3348,-5417,-5232,-7224,-36,64,-160
18980,162,15522,-15698,6407,-9408,-4367,-6340,-45,65,-153
18990,163,25125,-31303,3714,-10594,-2981,-697,-45,65,-153
19000,164,12032,-10054,-8843,-1848,1070,1199,-65,67,-133
19010,165,4783,-1971,-5182,6046,3565,874,-65,67,-133
19020,166,61,-36,1427,7662,4736,-216,-63,77,-125
19030,167,-438,-5431,4295,3192,1630,-1148,-63,77,-125
19040,168,859,-10143,5094,-3579,-2979,-2070,-60,66,-142
19050,169,5073,-15623,1796,-5640,-1984,-853,-60,66,-142
19060,170,4733,-13475,-2620,-1020,4778,529,-68,66,-138
19070,171,1066,-5894,-9764,1599,4767,1151,-68,66,-138
19080,172,-1239,-3914,-5034,2373,415,467,-56,72,-148
19090,173,154,-4916,587,1205,-1315,282,-56,72,-148
19100,174,1438,-6274,2197,-82,-908,717,-53,67,-145
19110,175,1835,-5959,1405,-265,779,1094,-53,67,-145
19120,176,2327,-5528,232,21,1280,1183,-52,64,-146
19130,177,1635,-4695,-342,216,1220,1063,-52,64,-146
19140,178,1860,-4249,-1013,866,1590,896,-52,68,-144
19150,179,1158,-3780,-903,1404,1524,761,-52,68,-144
19160,180,-60,-3781,-318,1456,1088,525,-44,64,-150
19170,181,-355,-3048,-552,1408,352,250,-44,64,-150
19180,182,-686,-1353,-532,2069,79,-21,-41,63,-149
19190,183,-996,894,-495,3382,791,-406,-41,63,-149
19200,184,-1162,2516,-190,4453,1480,-803,-44,58,-154
19210,185,-1417,3697,-381,4814,1654,-1204,-44,58,-154
19220,186,-1777,5026,-607,4863,1499,-1613,-44,46,-166
19230,187,-1178,5934,50,4339,1461,-2116,-44,46,-166
19240,188,-1312,5508,467,2577,1229,-2283,-39,39,-175
19250,189,-1374,3636,-1226,411,342,-2197,-39,39,-175
19260,190,-2415,2957,-309,-862,-1318,-2297,-43,35,-173
19270,191,-1289,2276,-349,-1641,-1124,-2006,-43,35,-173
19280,192,-664,1809,-400,-2079,-1317,-1516,-43,31,-171
19290,193,-936,1699,-298,-2104,-1115,-1040,-43,31,-171
19300,194,-1426,-746,468,-1818,-793,-434,-51,37,-173
19310,195,-12217,4607,4596,1274,-2961,1230,-51,37,-173
19320,196,9473,6111,15357,-3074,3989,-1511,-52,32,-168
19330,197,9756,-910,723,-7309,2044,526,-52,32,-168
19340,198,13638,-7579,8651,-11163,-207,3426,-48,40,-164
19350,199,12101,-19389,11173,-14367,-4277,6741,-48,40,-164
19360,200,1386,-18497,-10458,-8807,-2658,5778,-54,66,-150
19370,201,-12474,-22931,-13885,-7352,1741,2710,-54,66,-150
19380,202,-10913,-9355,-12562,2588,1414,-230,-41,89,-131
19390,203,-3071,-609,128,7985,374,-840,-41,89,-131
19400,204,-1300,-3072,3972,8029,1170,-236,-34,88,-136
19410,205,1571,-10746,10401,2676,-1455,354,-34,88,-136
19420,206,7296,-11013,5676,-2567,-572,582,-36,74,-146
19430,207,2621,-10594,491,-5381,-2150,395,-36,74,-146
19440,208,3385,-7557,-5753,-3036,-1058,-119,-36,80,-144
19450,209,1867,-4254,-7286,396,769,-420,-36,80,-144
19460,210,3718,-3815,-4202,2371,60,-1467,-37,77,-137
19470,211,4033,-4349,-865,2155,-1503,-1739,-37,77,-137
19480,212,4765,-5592,477,2333,102,-1484,-41,79,-143
19490,213,2223,-5581,257,2057,3,-1283,-41,79,-143
19500,214,1295,-6077,638,1445,-659,-1168,-39,71,-147
19510,215,1356,-6533,-127,1490,-440,-930,-39,71,-147
19520,216,497,-5566,-87,2136,-85,-651,-50,64,-152
19530,217,49,-4113,766,2247,117,-408,-50,64,-152
19540,218,-129,-3581,585,1565,97,-190,-47,69,-151
19550,219,-93,-3142,424,1215,-221,70,-47,69,-151
19560,220,517,-2202,-321,1207,-241,448,-45,61,-151
19570,221,1203,-914,-653,1639,157,988,-45,61,-151
19580,222,596,244,-526,2801,1001,1600,-50,60,-154
19590,223,-970,1694,-464,3888,1848,1936,-50,60,-154
19600,224,-1189,3016,-47,4595,2393,2515,-46,56,-158
19610,225,-1891,4295,-457,4943,3358,2989,-46,56,-158
19620,226,-1643,5603,-40,4590,3283,3071,-36,52,-174
19630,227,-1396,5788,1966,2879,-1156,2980,-36,52,-174
19640,228,-452,5992,3632,-2419,-727,2242,-25,39,-173
19650,229,-18,3572,422,-2551,-564,2017,-25,39,-173
19660,230,-596,3046,-405,-2345,122,1649,-25,41,-171
19670,231,-1721,2526,-768,-1479,57,1063,-25,41,-171
19680,232,-471,2299,-500,-1116,-212,472,-22,52,-176
19690,233,500,2799,-1594,-583,-2055,-252,-22,52,-176
19700,234,4615,2723,15119,-1155,-6620,-688,-26,52,-168
19710,235,-2071,4049,9093,-3391,-3226,-333,-26,52,-168
19720,236,-8049,-1985,1721,-3212,-1488,-2430,-39,55,-165
19730,237,-5464,-3183,-814,-3583,-3366,-4542,-39,55,-165
19740,238,-3635,-11664,4818,-6285,-6269,-7553,-39,63,-153
19750,239,23439,-21366,15667,-9962,-345,-5404,-39,63,-153
19760,240,31460,-29001,-78,-10968,-2540,-1176,-62,72,-146
19770,241,9885,-5392,-10839,-1341,2276,1277,-62,72,-146
19780,242,4384,-1845,-5774,6791,4782,414,-69,75,-129
19790,243,467,-2751,2352,6403,4253,-388,-69,75,-129
19800,244,-984,-7745,3252,1315,377,-1200,-56,64,-146
19810,245,2740,-11952,2221,-3227,-1850,-1698,-56,64,-146
19820,246,4844,-17051,2131,-2976,1218,-465,-59,67,-151
19830,247,1611,-9831,-2866,299,5983,942,-59,67,-151
19840,248,-492,-4311,-10129,1547,3759,1157,-59,69,-149
19850,249,-1751,-3535,-3668,1933,-497,286,-59,69,-149
19860,250,-203,-5118,1961,565,-1700,287,-45,71,-151
19870,251,787,-6355,2741,-747,-858,830,-45,71,-151
19880,252,1485,-6222,1290,-1128,734,1236,-47,63,-153
19890,253,1702,-5803,-710,-1201,902,1289,-47,63,-153
19900,254,1303,-5452,-1774,-605,859,1045,-50,66,-156
19910,255,1617,-5071,-1821,381,1136,791,-50,66,-156
19920,0,1238,-4404,-1447,1218,1156,670,-44,72,-152
19930,1,171,-3424,-1070,1456,874,454,-44,72,-152
19940,2,306,-2514,-898,1919,503,185,-39,69,-159
19950,3,389,-866,-564,2674,344,-1,-39,69,-159
19960,4,-182,1172,-444,3863,1046,-114,-33,69,-163
19970,5,-738,2630,-394,4874,1574,-490,-33,69,-163
19980,6,-949,3870,-194,5565,2016,-1123,-34,60,-170
19990,7,-944,5911,-1165,6150,1864,-1406,-34,60,-170
20000,8,-166,6197,616,6073,3137,-1682,-34,46,-174
20010,9,-2941,7954,5046,4194,1560,-1559,-34,46,-174
20020,10,-2500,5841,-850,-1307,1625,-2346,-28,30,-182
20030,11,-2315,2608,-3867,-2861,-969,-2830,-28,30,-182
20040,12,-216,1657,-557,-3964,-2061,-2353,-27,29,-185
20050,13,-505,1254,-464,-3901,-1791,-1617,-27,29,-185
20060,14,-915,1045,-470,-3243,-275,-1002,-36,34,-178
20070,15,-1294,-1195,-482,-2724,499,-211,-36,34,-178
20080,16,-6922,815,-4106,-295,-2775,1476,-33,39,-175
20090,17,-2984,2563,27830,3914,2269,-892,-33,39,-175
20100,18,7916,-1883,3550,-5746,4425,1416,-40,42,-176
20110,19,11279,-11653,6605,-11892,-446,4210,-40,42,-176
20120,20,12992,-20053,10109,-14204,-3332,6727,-29,53,-175
20130,21,-3256,-13813,-1512,-11538,1669,4222,-29,53,-175
20140,22,-14586,-11765,-27210,-8229,-2183,1908,-27,81,-145
20150,23,-5380,-8879,-9407,5074,-15,-1149,-27,81,-145
20160,24,-2444,-1267,1227,7789,251,-1017,-20,96,-138
20170,25,515,-3793,2845,6779,909,-248,-20,96,-138
20180,26,3479,-14327,8392,332,-1429,-85,-21,85,-155
20190,27,7432,-12845,3653,-3931,-1427,321,-21,85,-155
20200,28,3282,-8719,-5176,-3229,-1073,159,-28,76,-152
20210,29,2172,-3511,-8342,-120,105,180,-28,76,-152
20220,30,4522,-2985,-5091,1808,-378,-1268,-29,89,-149
20230,31,5580,-5299,-132,1634,-2578,-1808,-29,89,-149
20240,32,6512,-5709,1074,2363,-53,-1300,-30,86,-152
20250,33,3088,-6134,1063,1059,-239,-1189,-30,86,-152
20260,34,2777,-6725,461,279,-416,-1109,-38,80,-150
20270,35,1394,-6821,-115,492,-464,-899,-38,80,-150
20280,36,567,-6051,-980,1384,-159,-637,-35,75,-149
20290,37,-384,-5310,-1095,1908,90,-354,-35,75,-149
20300,38,-632,-4591,-933,2086,251,-79,-38,70,-154
20310,39,-518,-4312,-482,2339,122,200,-38,70,-154
20320,40,-16,-3582,72,2763,196,450,-42,66,-158
20330,41,478,-2232,853,3346,869,1008,-42,66,-158
20340,42,-556,-143,-271,4089,2025,1764,-40,62,-162
20350,43,-2341,2257,-930,4998,2462,2075,-40,62,-162
20360,44,-2950,3987,-966,5962,2429,2245,-32,56,-174
20370,45,-3226,6066,312,6041,2248,2419,-32,56,-174
20380,46,-2259,6283,1029,3817,1629,2668,-28,44,-180
20390,47,-1644,6194,1612,649,-865,2160,-28,44,-180
20400,48,-60,5470,222,-1470,-1291,1714,-24,32,-184
20410,49,66,3928,315,-2282,-1209,1595,-24,32,-184
20420,50,-1248,3254,-289,-2183,-826,1319,-29,39,-183
20430,51,-149,2831,-182,-1907,-269,860,-29,39,-183
20440,52,931,2445,-214,-2191,-672,457,-25,39,-175
20450,53,2506,2941,-1055,-1386,-3599,-376,-25,39,-175
20460,54,9260,1033,14202,-1461,-7784,-251,-25,51,-175
20470,55,-1860,2528,11278,-3054,-2716,-137,-25,51,-175
20480,56,-8629,-3488,-378,-3881,-2571,-2441,-38,54,-172
20490,57,-6952,-5250,3074,-3533,-3508,-4709,-38,54,-172
20500,58,3450,-11440,8489,-8245,-3888,-6998,-46,62,-162
20510,59,9437,-23583,5641,-8399,-460,-3836,-46,62,-162
20520,60,32767,-22046,-9646,-8732,-1825,1094,-58,64,-140
20530,61,4982,-4217,-9868,2471,1658,1207,-58,64,-140
20540,62,2145,-1775,-1076,8027,3803,762,-62,80,-132
20550,63,-801,-2898,3489,6916,3892,130,-62,80,-132
20560,64,-3182,-7308,6809,2135,372,-940,-52,66,-152
20570,65,3646,-12323,5097,-3382,-1959,-1862,-52,66,-152
20580,66,5814,-17022,2447,-5083,-406,-145,-57,59,-153
20590,67,4255,-8381,-967,-1385,6971,1018,-57,59,-153
20600,68,-286,-3291,-12192,-488,3966,1405,-55,61,-151
20610,69,-1218,-4350,-3886,633,-1897,134,-55,61,-151
20620,70,1297,-5834,1445,105,-2359,283,-45,71,-153
20630,71,1684,-6901,2782,21,-390,883,-45,71,-153
20640,72,2213,-6522,1801,-350,1128,1293,-43,69,-153
20650,73,1352,-6172,316,-670,1533,1313,-43,69,-153
20660,74,345,-5991,-557,-623,1507,1094,-43,75,-155
20670,75,732,-5983,-2161,21,1932,907,-43,75,-155
20680,76,322,-5083,-3082,991,1609,707,-47,73,-157
20690,77,-602,-3520,-2687,2202,1214,540,-47,73,-157
20700,78,254,-2420,-1775,2778,588,236,-34,70,-154
20710,79,465,-317,-1077,3307,230,139,-34,70,-154
20720,80,-226,1627,-504,4661,817,11,-39,61,-161
20730,81,-638,2610,159,5831,1523,-294,-39,61,-161
20740,82,-701,3998,-320,6186,2114,-661,-37,57,-171
20750,83,-547,5238,-1410,6238,2632,-674,-37,57,-171
20760,84,-1471,6938,14,6219,2950,-1015,-30,44,-180
20770,85,-1110,7954,3780,3887,1641,-1365,-30,44,-180
20780,86,-1969,7021,-1383,-1175,1309,-1965,-23,27,-191
20790,87,-1509,3862,-4329,-2817,-782,-2402,-23,27,-191
20800,88,-162,2028,-526,-4056,-2519,-2019,-25,31,-187
20810,89,-926,1420,-400,-4415,-2229,-1582,-25,31,-187
20820,90,-764,1064,-622,-4092,-1071,-1284,-37,37,-181
20830,91,-416,24,-689,-3563,-463,-872,-37,37,-181
20840,92,-2847,-3780,-1688,-2991,-2766,531,-40,48,-178
20850,93,-14478,6323,2145,2276,-6859,969,-40,48,-178
20860,94,11280,804,21337,923,2374,112,-38,52,-174
20870,95,9197,-8451,8625,-8933,1584,2764,-38,52,-174
20880,96,14560,-17688,18373,-14792,-4620,5920,-36,56,-166
20890,97,38,-16827,-2604,-10777,-2499,5593,-36,56,-166
20900,98,-9567,-19571,-13726,-9640,1921,4056,-30,96,-150
20910,99,-16436,-11833,-15215,875,93,640,-30,96,-150
20920,100,-2538,-1964,-3026,7281,-1069,-782,-19,107,-137
20930,101,-1361,-2841,3244,8391,-159,-279,-19,107,-137
20940,102,683,-9545,9233,4410,-886,518,-23,93,-147
20950,103,3464,-10996,8066,-750,-1402,624,-23,93,-147
20960,104,3583,-12731,2720,-5124,-2927,287,-25,89,-159
20970,105,4937,-8617,-4594,-4668,-1036,-360,-25,89,-159
20980,106,4067,-4794,-9067,-1056,77,-742,-34,92,-144
20990,107,4624,-3523,-6643,2087,-967,-1807,-34,92,-144
21000,108,5684,-4406,-728,2923,-1445,-2167,-35,97,-145
21010,109,6260,-4070,1680,3550,-58,-1670,-35,97,-145
21020,110,4025,-5135,3725,2491,296,-1449,-32,88,-148
21030,111,2690,-5735,1709,785,-657,-1158,-32,88,-148
21040,112,1983,-6775,1121,-33,-913,-988,-29,83,-151
21050,113,895,-6713,25,232,-341,-758,-29,83,-151
21060,114,-110,-5521,-1823,295,-319,-636,-34,86,-150
21070,115,-631,-4794,-1983,789,66,-468,-34,86,-150
21080,116,-1100,-3938,-1433,1640,73,-308,-39,83,-149
21090,117,-1149,-2962,-885,2472,36,-154,-39,83,-149
21100,118,-130,-1430,-98,3313,808,383,-42,76,-154
21110,119,-509,573,-889,4656,2481,997,-42,76,-154
21120,120,-783,1991,-1244,5269,2713,1458,-36,72,-160
21130,121,-2216,3186,-619,5617,2727,1929,-36,72,-160
21140,122,-2352,4380,-261,5163,2358,2237,-33,63,-169
21150,123,-1219,5059,914,3758,1637,2653,-33,63,-169
21160,124,-2197,5317,-688,2658,168,2831,-22,56,-184
21170,125,-2313,5847,1215,1240,-609,2431,-22,56,-184
21180,126,-907,5156,2495,-1090,136,2160,-17,49,-183
21190,127,-278,3673,-404,-2167,-112,1902,-17,49,-183
21200,128,-1428,2796,-872,-2710,-1234,1438,-16,50,-182
21210,129,-1247,1987,-42,-2600,-1321,856,-16,50,-182
21220,130,-540,1429,323,-2543,-902,310,-15,59,-177
21230,131,538,1673,-1549,-2145,-2231,-426,-15,59,-177
21240,132,10117,1712,2557,523,-6498,-1414,-15,65,-177
21250,133,-1332,3035,21077,-2434,-3804,-336,-15,65,-177
21260,134,-9271,-2587,688,-3717,-2361,-2264,-25,71,-171
21270,135,-2357,-5976,1804,-3919,-4355,-4967,-25,71,-171
21280,136,-89,-14262,11717,-6256,-5683,-6407,-35,79,-169
21290,137,14546,-22372,6715,-8035,-361,-5254,-35,79,-169
21300,138,31649,-20434,-4528,-9175,-4507,-4,-56,80,-148
21310,139,7787,-5088,-7279,1093,3209,1142,-56,80,-148
21320,140,2631,-1265,-1975,6430,5502,612,-64,90,-134
21330,141,477,-3416,1459,5292,4759,296,-64,90,-134
21340,142,-119,-8115,2343,402,-294,-602,-56,82,-150
21350,143,4539,-15517,3663,-4019,-2754,-1041,-56,82,-150
21360,144,4314,-17665,844,-3143,2638,334,-53,83,-153
21370,145,-244,-6741,-8510,636,8030,1306,-53,83,-153
21380,146,-1987,-3089,-11434,1901,2494,920,-46,88,-148
21390,147,-3934,-4210,-634,1699,-2123,-110,-46,88,-148
21400,148,-822,-6819,2902,268,-2164,220,-45,87,-151
21410,149,464,-7091,2640,-422,-967,930,-45,87,-151
21420,150,1066,-6626,1216,-212,636,1209,-43,83,-155
21430,151,699,-5794,696,7,1184,1216,-43,83,-155
21440,152,1164,-4882,-370,115,1468,1000,-41,93,-151
21450,153,1434,-4093,-1619,217,1247,796,-41,93,-151
21460,154,1005,-3351,-2152,687,554,690,-37,89,-155
21470,155,1239,-2597,-1854,1473,38,473,-37,89,-155
21480,156,1010,-1140,-932,2599,32,315,-33,85,-161
21490,157,32,685,-404,3706,869,204,-33,85,-161
21500,158,-320,1944,-237,4525,1738,89,-34,78,-160
21510,159,-873,3709,-735,4964,1972,-220,-34,78,-160
21520,160,-862,4606,-1119,5309,1824,-626,-26,76,-176
21530,161,-1056,5965,-1161,5553,2187,-1018,-26,76,-176
21540,162,-646,6233,-509,5328,3887,-1020,-31,55,-181
21550,163,-2585,6891,3012,2819,1119,-1479,-31,55,-181
21560,164,-2300,4793,-1907,-1718,-252,-2445,-21,43,-183
21570,165,-823,1976,-2255,-2937,-2110,-2738,-21,43,-183
21580,166,-688,1447,-305,-3487,-2578,-2045,-26,46,-190
21590,167,-863,1037,-244,-2998,-1540,-1604,-26,46,-190
21600,168,-877,732,-226,-2314,-488,-1131,-34,56,-178
21610,169,-1872,-2945,-939,-1460,-925,108,-34,56,-178
21620,170,-18248,6707,24985,611,-5207,-344,-36,62,-178
21630,171,8404,1964,4455,-5713,2869,333,-36,62,-178
21640,172,10559,-4866,4637,-8952,476,2465,-46,56,-170
21650,173,9700,-11180,6143,-11745,-2963,5162,-46,56,-170
21660,174,6942,-17473,7919,-11982,-2043,6385,-33,81,-161
21670,175,-3427,-15275,-3430,-10135,1327,4194,-33,81,-161
21680,176,-14433,-13882,-25198,-7318,-1917,1276,-32,114,-140
21690,177,-5632,-9291,-6613,5791,-41,-1135,-32,114,-140
21700,178,-1325,-1770,-754,8095,-656,-991,-22,120,-116
21710,179,-58,-6965,6301,6281,-632,-261,-22,120,-116
21720,180,4022,-10467,6663,2271,-1050,308,-23,105,-139
21730,181,5341,-12948,4727,-3494,-1313,382,-23,105,-139
21740,182,4019,-9546,-1920,-4859,-975,-184,-23,103,-137
21750,183,3335,-6445,-9301,-2345,828,-380,-23,103,-137
21760,184,3196,-4348,-8489,1487,-110,-1488,-31,115,-127
21770,185,4359,-4371,-1602,2454,-843,-1928,-31,115,-127
21780,186,4855,-5511,2640,2373,388,-1668,-25,109,-133
21790,187,3115,-5422,2195,808,-291,-1187,-25,109,-133
21800,188,2063,-6384,1097,246,-730,-1101,-33,99,-139
21810,189,1725,-7149,529,-331,-700,-1030,-33,99,-139
21820,190,1936,-7492,-859,205,-480,-899,-35,101,-135
21830,191,595,-6248,-2629,1313,-68,-608,-35,101,-135
21840,192,452,-4980,-2724,2968,594,-385,-36,100,-132
21850,193,4,-4067,-1280,3908,489,-86,-36,100,-132
21860,194,-7,-2971,119,4295,206,141,-39,93,-145
21870,195,235,-1459,818,4141,310,510,-39,93,-145
21880,196,-140,261,1013,3813,1257,1082,-37,87,-155
21890,197,-821,1373,881,3747,1330,1454,-37,87,-155
21900,198,-1612,2466,497,3716,1227,1649,-39,81,-163
21910,199,-2082,3479,1226,3658,1348,1822,-39,81,-163
21920,200,-2028,4513,1404,3036,1615,2066,-28,72,-170
21930,201,-2375,5262,1765,1930,1739,2135,-28,72,-170
21940,202,-1986,5557,906,590,1404,2139,-20,60,-168
21950,203,-1316,5236,-59,-1000,767,1904,-20,60,-168
21960,204,-1037,4474,-996,-2285,-338,1506,-16,68,-172
21970,205,-987,3062,-1379,-2795,-1299,1035,-16,68,-172
21980,206,-1396,2191,-964,-2129,-1838,597,-15,69,-171
21990,207,-673,1691,-216,-1200,-1413,175,-15,69,-171
22000,208,315,1927,-861,-469,-2118,-368,-18,70,-168
22010,209,4302,2615,2045,1553,-5606,-1452,-18,70,-168
22020,210,5330,2196,15469,3195,-216,137,-23,81,-165
22030,211,-9297,-657,6272,-1912,-1625,-1387,-23,81,-165
22040,212,-7378,-2853,-201,-4245,-2860,-3764,-32,72,-164
22050,213,-306,-8735,5588,-6888,-6977,-5899,-32,72,-164
22060,214,12123,-21578,12783,-11391,-1023,-5291,-39,81,-155
22070,215,32767,-30203,-6106,-12068,632,-2639,-39,81,-155
22080,216,8700,-5677,-13302,-1939,519,813,-61,89,-131
22090,217,4731,-899,-5212,6900,4170,299,-61,89,-131
22100,218,415,-439,2108,8294,4598,-505,-64,96,-126
22110,219,868,-6029,4105,3912,2176,-937,-64,96,-126
22120,220,2844,-10084,5239,-2892,-1914,-1693,-50,82,-150
22130,221,5902,-16384,3857,-6494,-1101,-772,-50,82,-150
22140,222,3858,-13193,-4502,-3106,4709,856,-54,84,-148
22150,223,-822,-4855,-13810,1649,6056,1511,-54,84,-148
22160,224,-1035,-3688,-5065,3310,624,415,-50,86,-140
22170,225,-348,-4742,1763,1987,-1096,336,-50,86,-140
22180,226,939,-5855,3189,440,-762,831,-52,84,-148
22190,227,1157,-5937,2279,-632,-170,1274,-52,84,-148
22200,228,581,-5971,1043,-795,591,1297,-44,84,-146
22210,229,505,-6068,528,-726,936,1033,-44,84,-146
22220,230,952,-6329,-320,-553,1566,790,-44,82,-148
22230,231,1229,-5657,-1952,-130,1644,633,-44,82,-148
22240,232,954,-4930,-2992,1036,1327,589,-42,88,-150
22250,233,630,-3076,-2354,2598,946,440,-42,88,-150
22260,234,769,-632,-942,3927,754,403,-37,85,-153
22270,235,-203,1233,-154,4566,743,351,-37,85,-153
22280,236,-1208,1966,744,5041,1378,158,-37,73,-161
22290,237,-1413,2847,360,4865,1685,-74,-37,73,-161
22300,238,-1775,4669,86,4860,1616,-618,-28,72,-170
22310,239,-1790,5922,111,4563,2607,-1175,-28,72,-170
22320,240,-207,6190,188,3501,3618,-1306,-26,58,-174
22330,241,-1286,5335,-1106,2801,2130,-1450,-26,58,-174
22340,242,-3288,5527,-97,-640,775,-1783,-21,45,-181
22350,243,-2763,2789,-2272,-2653,-507,-2096,-21,45,-181
22360,244,-1266,1791,-561,-3530,-2432,-1800,-18,42,-182
22370,245,-1019,1424,-504,-3684,-1850,-1351,-18,42,-182
22380,246,-3057,-719,-2284,-2281,-2808,68,-25,51,-179
22390,247,-10965,5867,5551,2632,-4448,-318,-25,51,-179
22400,248,9520,6245,12283,-3889,3485,-801,-33,57,-177
22410,249,5034,-494,465,-6232,1329,769,-33,57,-177
22420,250,8252,-4201,9059,-9747,62,2695,-37,65,-171
22430,251,10085,-17545,10185,-15884,-5459,5445,-37,65,-171
22440,252,10039,-21025,-2789,-15237,-770,5521,-27,81,-157
22450,253,-12463,-18469,-25451,-11905,982,3494,-27,81,-157
22460,254,-9942,-10606,-12132,6517,1260,-424,-19,115,-123
22470,255,-3142,-1867,722,9326,323,-802,-19,115,-123
22480,0,-1628,-3540,4851,8565,212,-565,-17,105,-131
22490,1,-169,-7553,8768,4429,-652,-134,-17,105,-131
22500,2,5418,-11755,8504,-1970,-779,359,-16,96,-142
22510,3,4146,-11076,2729,-5737,-1383,602,-16,96,-142
22520,4,3352,-8112,-6224,-4288,-710,257,-19,91,-141
22530,5,2184,-3485,-10928,519,473,-377,-19,91,-141
22540,6,3457,-3725,-4095,2668,-1234,-1545,-16,104,-130
22550,7,4406,-4946,2380,2917,-1052,-1584,-16,104,-130
22560,8,3921,-4838,1384,3032,-1008,-1076,-24,96,-138
22570,9,3317,-5787,1291,1416,-184,-963,-24,96,-138
22580,10,1306,-7026,2074,15,-919,-905,-25,91,-143
22590,11,979,-7251,1227,187,-641,-778,-25,91,-143
22600,12,101,-6380,-742,435,-131,-565,-29,87,-145
22610,13,-588,-5199,-2282,1174,279,-339,-29,87,-145
22620,14,-990,-4161,-1555,2013,137,-91,-25,87,-145
22630,15,-688,-3471,-700,2538,-68,182,-25,87,-145
22640,16,-334,-1745,-774,2813,-98,464,-31,85,-147
22650,17,366,-359,127,3444,157,995,-31,85,-147
22660,18,-387,1514,-752,4740,1393,1497,-34,78,-154
22670,19,-833,2743,-443,5708,2085,1817,-34,78,-154
22680,20,-1104,3872,83,6370,3234,2373,-20,74,-164
22690,21,-1809,4701,-244,6561,3712,2882,-20,74,-164
22700,22,-1546,5025,541,5000,3376,2871,-14,56,-178
22710,23,-808,5282,5342,551,281,2839,-14,56,-178
22720,24,-1806,5196,-459,-1941,1138,1979,-5,51,-183
22730,25,908,3523,-1279,-1973,1096,1300,-5,51,-183
22740,26,852,3060,-951,-2493,-284,1269,1,49,-177
22750,27,-493,3877,-2428,-2057,-1518,722,1,49,-177
22760,28,3115,3760,5481,-87,-8206,-15,4,52,-174
22770,29,1108,5615,16648,-6660,-5212,-139,4,52,-174
22780,30,-7320,116,2697,-4669,-2121,-175,-9,61,-171
22790,31,-6475,-1145,-2499,-2105,-1088,-2611,-9,61,-171
22800,32,-537,-2480,1993,-3402,-2877,-4649,-16,72,-162
22810,33,-882,-14250,9631,-8099,-7076,-6930,-16,72,-162
22820,34,14126,-23019,6401,-11989,846,-4791,-30,74,-154
22830,35,30672,-21563,-7536,-10364,-1259,-1531,-30,74,-154
22840,36,5640,-3753,-12297,1061,1207,505,-46,88,-134
22850,37,4658,-3744,-1703,7324,2296,139,-46,88,-134
22860,38,758,-3509,3517,6486,1707,-226,-49,89,-131
22870,39,442,-8933,5656,2137,-331,-518,-49,89,-131
22880,40,746,-11759,5611,-1780,-37,-588,-43,79,-149
22890,41,3995,-15218,2032,-1753,3711,154,-43,79,-149
22900,42,1128,-7208,-5452,-888,5939,1668,-50,82,-144
22910,43,-1291,-2920,-12905,827,3091,1463,-50,82,-144
22920,44,-1533,-3715,-3061,1900,-2254,177,-33,85,-149
22930,45,525,-5588,2135,905,-3147,171,-33,85,-149
22940,46,1573,-6848,3177,150,-1859,679,-36,76,-148
22950,47,2771,-7405,3040,-538,-418,1127,-36,76,-148
22960,48,2325,-6673,1404,-771,603,1434,-42,82,-148
22970,49,1953,-5879,-63,83,1882,1394,-42,82,-148
22980,50,2042,-4775,-1242,308,1956,1201,-35,81,-149
22990,51,1440,-3770,-2102,713,1205,1017,-35,81,-149
23000,52,310,-3343,-2086,1590,647,783,-27,79,-151
23010,53,370,-2346,-1393,2681,158,497,-27,79,-151
23020,54,459,-885,-426,3519,-19,461,-23,81,-155
23030,55,-92,902,347,4385,358,429,-23,81,-155
23040,56,-845,2436,113,5110,1117,137,-17,73,-159
23050,57,-1100,3905,527,5836,1492,-645,-17,73,-159
23060,58,186,4613,2372,5761,3052,-904,-22,62,-172
23070,59,-553,5505,-125,5596,2816,-1050,-22,62,-172
23080,60,-1165,6068,2824,2842,1378,-1463,-15,45,-179
23090,61,-2567,6251,-1871,421,1924,-2022,-15,45,-179
23100,62,-3090,3456,-2718,-1636,1096,-2168,-12,40,-184
23110,63,-218,2278,-2141,-3075,-2128,-2248,-12,40,-184
23120,64,-557,1566,-881,-3957,-2603,-1682,-11,39,-181
23130,65,-1255,1161,-740,-3627,-1818,-1274,-11,39,-181
23140,66,-2237,-1437,-837,-2734,-1678,-13,-19,53,-175
23150,67,-8170,2422,-2070,1905,-5419,653,-19,53,-175
23160,68,10084,5150,23900,-2286,3607,-271,-26,52,-172
23170,69,6715,-2844,3382,-6555,2300,1789,-26,52,-172
23180,70,10339,-9441,9640,-11691,-472,4155,-26,58,-170
23190,71,12651,-22685,14327,-15991,-5830,6479,-26,58,-170
23200,72,2190,-15762,-7900,-11956,800,4706,-22,84,-150
23210,73,-16496,-14251,-27621,-7925,-1279,3050,-22,84,-150
23220,74,-8844,-7800,-9591,6926,710,-154,-16,106,-128
23230,75,-5106,-882,418,9409,-1259,-1103,-16,106,-128
23240,76,-1833,-4255,5816,8670,-1351,-634,-3,99,-133
23250,77,1602,-10463,10748,4074,-984,22,-3,99,-133
23260,78,3690,-10429,4955,-2958,-2606,-96,-13,83,-151
23270,79,4368,-8313,-237,-5824,-2417,-489,-13,83,-151
23280,80,5393,-6345,-7116,-4931,-1186,-419,-17,91,-147
23290,81,4088,-4283,-8469,-526,36,-963,-17,91,-147
23300,82,5462,-3513,-4075,2617,-654,-1792,-15,93,-139
23310,83,6482,-5251,1018,3464,394,-1689,-15,93,-139
23320,84,3894,-5587,2348,2506,-291,-1326,-25,95,-141
23330,85,2649,-6741,2210,1474,-434,-1263,-25,95,-141
23340,86,1324,-7722,2215,360,-1136,-1279,-28,86,-146
23350,87,1220,-7659,1061,-151,-638,-1040,-28,86,-146
23360,88,-100,-6574,-1158,174,-249,-625,-27,87,-145
23370,89,-730,-5068,-2199,1231,24,-228,-27,87,-145
23380,90,-1414,-3922,-1705,2343,7,69,-35,85,-147
23390,91,-533,-2549,124,3143,866,507,-35,85,-147
23400,92,-481,-1149,-698,3630,1389,987,-34,82,-156
23410,93,-585,892,-1292,4093,1511,1398,-34,82,-156
23420,94,-886,1657,-872,4568,1371,1705,-28,76,-158
23430,95,-1296,2992,-102,4996,1153,1882,-28,76,-158
23440,96,-1251,4063,206,5324,1953,2198,-24,62,-168
23450,97,-1419,4595,616,5224,1811,2568,-24,62,-168
23460,98,-1378,5103,1607,3270,1291,2568,-17,53,-173
23470,99,-665,4646,2195,376,6,2496,-17,53,-173
23480,100,-926,4768,1193,-1505,96,2034,-11,51,-183
23490,101,135,3959,-70,-2678,292,1652,-11,51,-183
23500,102,-150,3211,-753,-3318,-514,1386,-8,52,-176
23510,103,279,4491,-2939,-2214,-2734,631,-8,52,-176
23520,104,3886,3033,4318,-393,-6899,-278,-3,59,-171
23530,105,-1943,4811,19575,-4103,-4323,744,-3,59,-171
23540,106,-8361,-505,-101,-2731,-2116,-385,-17,65,-169
23550,107,-5024,-596,-349,-2588,-936,-3186,-17,65,-169
23560,108,544,-5271,1710,-4680,-3276,-5323,-23,71,-167
23570,109,1886,-18265,14235,-10805,-10130,-7052,-23,71,-167
23580,110,13409,-23993,910,-11126,-538,-4604,-36,78,-154
23590,111,22079,-19022,-13820,-7832,67,-345,-36,78,-154
23600,112,4691,-2607,-10889,3204,780,408,-57,89,-127
23610,113,3156,-2742,-193,8078,1659,-144,-57,89,-127
23620,114,1249,-4797,4302,6746,1252,-610,-46,94,-132
23630,115,587,-10252,8767,1924,64,-920,-46,94,-132
23640,116,2776,-11162,4466,-2315,1717,-835,-45,73,-151
23650,117,4212,-14053,2340,-3106,4095,49,-45,73,-151
23660,118,2604,-8483,-5884,-2082,5758,1553,-44,74,-144
23670,119,-2005,-3083,-14357,835,2115,1004,-44,74,-144
23680,120,-848,-3989,-3108,2378,-1648,-40,-40,80,-144
23690,121,-163,-5258,2321,1924,-1361,225,-40,80,-144
23700,122,585,-5700,3177,841,-12,753,-37,77,-149
23710,123,1348,-5826,1956,-609,389,1264,-37,77,-149
23720,124,390,-5214,-164,-1008,363,1508,-35,73,-159
23730,125,887,-5010,-706,-226,935,1405,-35,73,-159
23740,126,1181,-4366,-1010,512,1265,1268,-34,78,-154
23750,127,1226,-3828,-1119,1047,1221,1135,-34,78,-154
23760,128,551,-3591,-1145,1309,271,985,-21,81,-155
23770,129,203,-3304,-599,1819,-365,865,-21,81,-155
23780,130,-284,-1626,-533,2812,-528,814,-21,79,-161
23790,131,-899,558,-291,4002,-236,624,-21,79,-161
23800,132,-1092,2219,-333,5281,362,96,-31,71,-167
23810,133,-661,3802,1010,6433,1269,-664,-31,71,-167
23820,134,-307,4880,1523,6379,3103,-1086,-21,63,-171
23830,135,-495,5840,926,5461,3314,-1329,-21,63,-171
23840,136,109,6098,-1874,3779,2479,-1576,-18,46,-180
23850,137,-1486,5314,-673,518,1004,-2086,-18,46,-180
23860,138,-1151,3537,-2091,-2157,0,-2527,-15,41,-185
23870,139,517,2265,-1260,-3251,-2552,-2198,-15,41,-185
23880,140,-192,1880,-415,-3738,-2163,-1726,-14,40,-182
23890,141,-336,1282,-478,-3336,-1512,-1296,-14,40,-182
23900,142,-2731,-1202,-1256,-2012,-2592,201,-29,45,-179
23910,143,-8370,5064,9787,1974,-3278,-964,-29,45,-179
23920,144,5156,2262,2733,-3560,3637,-36,-30,48,-176
23930,145,6778,-2461,3360,-5752,1722,1170,-30,48,-176
23940,146,6654,-7293,6045,-10012,-1175,3380,-31,57,-175
23950,147,8575,-19370,14366,-14466,-3926,6172,-31,57,-175
23960,148,816,-17570,1081,-10668,-2478,4799,-24,82,-160
23970,149,-9174,-20591,-18156,-13705,237,3164,-24,82,-160
23980,150,-11447,-6849,-14183,3634,-777,-248,-17,103,-131
23990,151,-1841,-2054,-468,7384,-1291,-818,-17,103,-131
24000,152,-260,-4694,3791,6126,-990,-893,-13,107,-133
24010,153,5678,-9577,8076,2125,-1057,44,-13,107,-133
24020,154,5687,-12065,5370,-1970,-1119,916,-20,96,-144
24030,155,4789,-10848,-2621,-4260,-1395,699,-20,96,-144
24040,156,3481,-6560,-7518,-1085,-105,648,-21,97,-145
24050,157,3690,-4554,-6966,1824,48,-190,-21,97,-145
24060,158,4116,-4388,-1932,2904,-985,-743,-19,105,-141
24070,159,5038,-5558,2032,3258,17,-734,-19,105,-141
24080,160,2279,-4977,2259,1974,-555,-566,-23,99,-147
24090,161,2174,-6070,1964,589,-858,-764,-23,99,-147
24100,162,1224,-6354,469,-297,-1125,-778,-27,93,-147
24110,163,873,-6023,-887,126,-1034,-707,-27,93,-147
24120,164,354,-5240,-1501,1275,-633,-497,-30,94,-150
24130,165,141,-4839,-1238,1720,-560,-198,-30,94,-150
24140,166,33,-4318,-1113,1833,-373,109,-27,95,-153
24150,167,648,-4033,-175,2350,70,552,-27,95,-153
24160,168,355,-3222,-631,2858,831,881,-34,90,-154
24170,169,353,-981,-1296,3188,564,1263,-34,90,-154
24180,170,-242,1082,-1301,4104,409,1491,-30,84,-160
24190,171,-352,2165,-575,4950,408,1563,-30,84,-160
24200,172,-702,3063,213,5426,934,1765,-26,82,-170
24210,173,-1207,4062,82,5817,1697,2132,-26,82,-170
24220,174,-1266,4724,1894,5747,2322,2218,-21,67,-175
24230,175,-957,4959,2160,3585,3118,2217,-21,67,-175
24240,176,-1119,5661,3217,-618,572,2099,-13,55,-185
24250,177,-887,4203,-1174,-2870,935,1424,-13,55,-185
24260,178,944,2743,-224,-2880,-1558,1058,-11,57,-185
24270,179,95,2624,-419,-3288,-1537,1019,-11,57,-185
24280,180,-176,3329,-2185,-2221,-2179,670,-7,67,-179
24290,181,4007,2759,3961,756,-4125,75,-7,67,-179
24300,182,13,6656,19682,-2232,-2872,687,-11,71,-181
24310,183,-9883,721,3430,-2619,-2061,9,-11,71,-181
24320,184,-8917,-1515,496,-3257,-2039,-2546,-16,76,-174
24330,185,-5769,-6358,3083,-5313,-5494,-5058,-16,76,-174
24340,186,-783,-15430,8217,-10593,-6645,-7073,-28,82,-164
24350,187,19638,-23120,986,-12698,-794,-4404,-28,82,-164
24360,188,19167,-18079,-13281,-7145,-1619,1004,-53,93,-149
24370,189,6274,-2998,-11020,3421,1337,1054,-53,93,-149
24380,190,4352,-2099,-1344,7217,601,472,-50,102,-130
24390,191,966,-3504,3449,6161,742,-227,-50,102,-130
24400,192,808,-9456,7299,1650,-514,-644,-56,92,-142
24410,193,361,-9699,4031,-1766,281,-863,-56,92,-142
24420,194,435,-10228,1777,-1570,2716,-522,-56,90,-146
24430,195,4350,-10036,-3046,-1285,3209,759,-56,90,-146
24440,196,-1284,-4682,-6585,-216,2194,1143,-45,91,-151
24450,197,-856,-3926,-5202,1233,-418,450,-45,91,-151
24460,198,143,-4606,-749,1443,-1491,305,-47,93,-149
24470,199,1031,-5262,1330,986,-655,552,-47,93,-149
24480,200,2026,-5168,554,433,-50,963,-51,89,-149
24490,201,1755,-4955,654,59,229,1119,-51,89,-149
24500,202,2179,-4471,-91,-79,480,1154,-45,93,-153
24510,203,1961,-3645,-949,460,951,1036,-45,93,-153
24520,204,1285,-3075,-1617,1028,673,836,-43,91,-153
24530,205,331,-2942,-803,1391,46,634,-43,91,-153
24540,206,-419,-2923,-215,1684,-314,437,-40,92,-154
24550,207,-832,-1820,-223,2187,-598,212,-40,92,-154
24560,208,-599,-398,-139,3036,-269,-105,-37,85,-157
24570,209,-133,926,-233,4071,232,-243,-37,85,-157
24580,210,-641,2797,-457,5288,330,-315,-47,83,-163
24590,211,-1419,4577,2081,6322,1705,-1009,-47,83,-163
24600,212,-417,4922,2554,5906,3434,-950,-43,65,-173
24610,213,-1462,5570,3209,3922,908,-1140,-43,65,-173
24620,214,-1269,5692,-135,584,662,-1582,-35,53,-177
24630,215,-921,4599,-2230,-692,466,-1813,-35,53,-177
24640,216,137,3016,-2206,-2004,-1445,-1781,-43,47,-181
24650,217,30,2051,-365,-2797,-2776,-1274,-43,47,-181
24660,218,-1620,1003,-89,-2932,-2373,-744,-45,51,-177
24670,219,-6988,3942,8590,-1191,-5076,-421,-45,51,-177
24680,220,2231,6207,12669,-2849,1760,-1240,-49,55,-173
24690,221,2621,867,-1934,-4309,2738,344,-49,55,-173
24700,222,6084,-2956,2163,-7254,1344,1778,-54,62,-162
24710,223,8687,-10597,8791,-11096,-2879,3993,-54,62,-162
24720,224,7489,-23098,13848,-16855,-6731,6858,-47,77,-153
24730,225,-6892,-25841,-3003,-16035,3693,2681,-47,77,-153
24740,226,-26336,-9884,-32767,-4030,-208,578,-45,113,-121
24750,227,-1546,-3634,-5087,7791,-765,-1133,-45,113,-121
24760,228,-1274,-1144,1576,8866,374,-698,-44,114,-106
24770,229,-83,-5278,3680,6014,-448,-403,-44,114,-106
24780,230,5112,-9093,5779,417,-3353,-2,-43,103,-125
24790,231,8419,-14244,5749,-3159,-1217,1250,-43,103,-125
24800,232,2765,-8785,-3350,-4735,-1660,936,-47,109,-127
24810,233,2895,-6953,-8766,-2101,-1412,437,-47,109,-127
24820,234,3365,-5404,-6294,1369,-291,-2,-49,113,-111
24830,235,3807,-4567,-2607,2337,-1733,-654,-49,113,-111
24840,236,3073,-5655,1974,2252,-1379,-707,-46,114,-112
24850,237,2229,-5414,1718,1099,-1192,-563,-46,114,-112
24860,238,1547,-5322,-103,118,-1317,-619,-52,110,-118
24870,239,1463,-5481,-685,210,-1471,-546,-52,110,-118
24880,240,1582,-5064,-996,559,-1512,-424,-54,110,-116
24890,241,1643,-4920,-1443,733,-1403,-286,-54,110,-116
24900,242,1740,-4846,-1941,1107,-1237,13,-55,111,-121
24910,243,741,-4559,-1420,1739,-199,405,-55,111,-121
24920,244,1029,-3514,-2039,2457,204,630,-55,105,-117
24930,245,1011,-2919,-2112,2894,-90,837,-55,105,-117
24940,246,1467,-1885,-1322,3242,-399,1013,-53,105,-125
24950,247,1560,-269,-931,3851,-367,1322,-53,105,-125
24960,248,935,927,-152,4453,-48,1571,-47,107,-127
