# timeStamp,AccX,AccY,AccZ,GyrX,GyrY,GyrZ,MagX,MagY,MagZ
2.010000000000000000e+03 3.209326171874999911e-01 8.705895996093749645e+00 -1.005908203125000094e-01 -8.782958984375000000e+01 -5.371093750000000000e+01 -9.393310546875000000e+01 3.814500000000000113e-01 6.713520000000000598e-01 -1.113833999999999991e+00
2.020000000000000000e+03 -1.140029296875000098e+00 8.042475585937500782e+00 -2.263293457031250178e+00 -1.531982421875000000e+02 -7.690429687500000000e+01 -9.362792968750000000e+01 -4.424820000000000420e-01 7.476420000000000288e-01 -8.697060000000000901e-01
2.030000000000000000e+03 -1.880090332031250089e+00 3.951782226562500000e+00 -4.665498046875000249e+00 -1.127319335937500000e+02 -3.997802734375000000e+01 -8.380126953125000000e+01 -4.424820000000000420e-01 7.476420000000000288e-01 -8.697060000000000901e-01
2.040000000000000000e+03 -6.102509765625000249e+00 2.692001953125000124e+00 -1.391506347656250142e+00 -6.878662109375000000e+01 -9.277343750000000000e+00 -7.629394531250000000e+01 -5.035140000000000171e-01 7.018680000000000474e-01 -9.002220000000000777e-01
2.050000000000000000e+03 -4.124223632812499929e+00 6.641389160156250249e+00 1.194396240234375028e+01 1.342773437500000000e+01 6.713867187500000000e+01 -7.434082031250000000e+01 -5.035140000000000171e-01 7.018680000000000474e-01 -9.002220000000000777e-01
2.060000000000000000e+03 7.975415039062500044e-01 6.653364257812500071e+00 1.530656982421875156e+01 -8.911132812500000000e+01 1.666259765625000000e+01 -6.695556640625000000e+01 -4.653690000000000326e-01 7.094970000000000443e-01 -8.163030000000000008e-01
2.070000000000000000e+03 2.823728027343749947e+00 5.225932617187500462e+00 3.844006347656250266e+00 -2.138061523437500000e+02 -2.362060546875000000e+01 -3.631591796875000000e+01 -4.653690000000000326e-01 7.094970000000000443e-01 -8.163030000000000008e-01
2.080000000000000000e+03 8.957373046875000133e-01 2.371069335937500133e-01 -6.679709472656250036e+00 -1.360473632812500000e+02 4.290771484375000000e+01 1.782226562500000000e+01 -5.111430000000000140e-01 7.094970000000000443e-01 -8.468189999999999884e-01
2.090000000000000000e+03 5.819897460937499822e-01 -2.366279296875000160e+00 8.626860351562500639e+00 -7.885742187500000000e+01 1.004638671875000000e+02 6.243896484375000000e+01 -5.111430000000000140e-01 7.094970000000000443e-01 -8.468189999999999884e-01
2.100000000000000000e+03 3.173400878906250000e+00 -7.812553710937500284e+00 2.324366455078125071e+01 -2.601318359375000000e+02 7.141113281250000000e+01 1.383056640625000000e+02 -4.729980000000000295e-01 7.171260000000000412e-01 -7.934160000000000101e-01
2.110000000000000000e+03 2.294907714843749957e+01 -5.976292236328125540e+01 2.029060546875000171e+01 -4.201049804687500000e+02 -7.171630859375000000e+01 2.775878906250000000e+02 -4.729980000000000295e-01 7.171260000000000412e-01 -7.934160000000000101e-01
2.120000000000000000e+03 2.382804931640625057e+01 -5.426156250000000369e+01 8.981323242187500000e-01 -4.290161132812500000e+02 -4.602050781250000000e+01 3.747558593750000000e+02 -4.272240000000000482e-01 7.629000000000000226e-01 -7.781580000000000163e-01
2.130000000000000000e+03 -2.315504882812500043e+01 -3.421524902343750085e+01 -1.876737304687500085e+01 -4.312133789062500000e+02 -1.391601562500000000e+02 2.199096679687500000e+02 -4.272240000000000482e-01 7.629000000000000226e-01 -7.781580000000000163e-01
2.140000000000000000e+03 -3.827959716796875256e+01 -8.696315917968750142e+00 -2.130130371093749986e+01 1.254882812500000000e+02 -1.324462890625000000e+02 -2.441406250000000000e-01 -3.814500000000000113e-01 8.849640000000000839e-01 -6.560940000000000660e-01
2.150000000000000000e+03 -1.437969726562500128e+01 -6.459367675781249929e+00 -1.161584472656250089e+00 3.157958984375000000e+02 -5.932617187500000000e+01 -1.359252929687500000e+02 -3.814500000000000113e-01 8.849640000000000839e-01 -6.560940000000000660e-01
2.160000000000000000e+03 -2.881208496093750071e+00 -1.557241699218750064e+01 8.957373046875000355e+00 2.846069335937500000e+02 1.995849609375000000e+02 -8.410644531250000000e+01 -3.280470000000000330e-01 8.620770000000000932e-01 -6.026909999999999767e-01
2.170000000000000000e+03 2.141386962890625156e+01 -2.296105224609375028e+01 1.181463134765625078e+01 3.388061523437500000e+02 -1.669311523437500000e+02 3.723144531250000000e+00 -3.280470000000000330e-01 8.620770000000000932e-01 -6.026909999999999767e-01
2.180000000000000000e+03 3.618874511718749964e+00 -2.981559814453125057e+01 2.031695068359375256e+01 8.392333984375000000e+01 -8.990478515625000000e+01 2.593994140625000000e+01 -3.661920000000000175e-01 8.239319999999999977e-01 -7.018680000000000474e-01
2.190000000000000000e+03 6.605463867187499893e+00 -2.382086425781250227e+01 8.401728515625000782e+00 -1.215209960937500000e+02 -1.112670898437500000e+02 1.416015625000000000e+01 -3.661920000000000175e-01 8.239319999999999977e-01 -7.018680000000000474e-01
2.200000000000000000e+03 7.362290039062500568e+00 -1.474613525390625135e+01 -2.644101562499999947e+00 -1.847534179687500000e+02 -4.742431640625000000e+01 -4.943847656250000000e+00 -3.127890000000000392e-01 8.315609999999999946e-01 -7.552710000000000257e-01
2.210000000000000000e+03 8.183781738281250995e+00 -1.357497070312500043e+01 -1.052611083984375107e+01 -1.098632812500000000e+02 -3.338623046875000000e+01 -2.746582031250000000e+01 -3.127890000000000392e-01 8.315609999999999946e-01 -7.552710000000000257e-01
2.220000000000000000e+03 9.199270019531249787e+00 -1.581431396484375007e+01 -6.912026367187499964e+00 7.019042968750000000e+00 -2.856445312500000000e+01 -4.852294921875000000e+01 -3.661920000000000175e-01 8.239319999999999977e-01 -6.713520000000000598e-01
2.230000000000000000e+03 8.298742675781250355e+00 -1.611848144531250071e+01 2.514770507812499889e-01 6.585693359375000000e+01 -1.019287109375000000e+01 -6.274414062500000000e+01 -3.661920000000000175e-01 8.239319999999999977e-01 -6.713520000000000598e-01
2.240000000000000000e+03 6.021079101562500036e+00 -1.763452880859374972e+01 3.855981445312500089e+00 5.847167968750000000e+01 -1.770019531250000000e+01 -7.177734375000000000e+01 -3.661920000000000175e-01 8.239319999999999977e-01 -6.713520000000000598e-01
2.250000000000000000e+03 2.965034179687500160e+00 -1.720821533203125142e+01 4.253554687500000320e+00 3.411865234375000000e+01 -2.862548828125000000e+01 -7.012939453125000000e+01 -3.661920000000000175e-01 8.239319999999999977e-01 -6.713520000000000598e-01
2.260000000000000000e+03 3.338657226562500302e+00 -1.601789062499999972e+01 2.766247558593750266e+00 1.269531250000000000e+01 -3.948974609375000000e+01 -6.353759765625000000e+01 -3.738210000000000144e-01 8.010450000000000070e-01 -6.789810000000000567e-01
2.270000000000000000e+03 2.885998535156250266e+00 -1.338336914062500149e+01 -6.155200195312500178e-01 1.629638671875000000e+01 -4.498291015625000000e+01 -5.511474609375000000e+01 -3.738210000000000144e-01 8.010450000000000070e-01 -6.789810000000000567e-01
2.280000000000000000e+03 2.265688476562500053e+00 -1.115121093750000014e+01 -2.759062500000000195e+00 3.326416015625000000e+01 -6.799316406250000000e+01 -4.681396484375000000e+01 -4.729980000000000295e-01 7.781580000000000163e-01 -7.018680000000000474e-01
2.290000000000000000e+03 5.197192382812499956e-01 -1.095242431640625114e+01 -2.859653320312500302e+00 4.516601562500000000e+01 -9.692382812500000000e+01 -3.442382812500000000e+01 -4.729980000000000295e-01 7.781580000000000163e-01 -7.018680000000000474e-01
2.300000000000000000e+03 -2.639311523437500195e+00 -1.084704345703125128e+01 5.029541015624999778e-01 5.419921875000000000e+01 -7.794189453125000000e+01 -2.142333984375000000e+01 -4.043370000000000020e-01 8.163030000000000008e-01 -6.942390000000000505e-01
2.310000000000000000e+03 -1.111289062500000036e+00 -9.946516113281250071e+00 -2.483635253906250284e+00 6.359863281250000000e+01 -4.992675781250000000e+01 -1.257324218750000000e+01 -4.043370000000000020e-01 8.163030000000000008e-01 -6.942390000000000505e-01
2.320000000000000000e+03 -2.169887695312500142e+00 -8.646020507812499645e+00 -1.331630859375000142e+00 1.167602539062500000e+02 -4.608154296875000000e+01 -1.708984375000000000e+00 -4.729980000000000295e-01 8.239319999999999977e-01 -7.476420000000000288e-01
2.330000000000000000e+03 -1.041833496093750089e+00 -5.379213867187500497e+00 -9.148974609375000178e-01 1.765747070312500000e+02 -4.907226562500000000e+01 1.086425781250000000e+01 -4.729980000000000295e-01 8.239319999999999977e-01 -7.476420000000000288e-01
2.340000000000000000e+03 -6.442602539062500799e-01 -9.723779296875000311e-01 -9.627978515625000844e-01 2.170410156250000000e+02 -5.474853515625000000e+01 2.398681640625000000e+01 -4.501110000000000388e-01 8.010450000000000070e-01 -6.942390000000000505e-01
2.350000000000000000e+03 -1.089733886718750044e+00 2.313588867187500231e+00 2.586621093750000044e-01 2.636108398437500000e+02 -4.522705078125000000e+01 3.936767578125000000e+01 -4.501110000000000388e-01 8.010450000000000070e-01 -6.942390000000000505e-01
2.360000000000000000e+03 -1.683698730468750071e+00 3.956572265625000195e+00 1.480122070312499982e+00 2.681884765625000000e+02 6.408691406250000000e+00 5.749511718750000000e+01 -4.424820000000000420e-01 7.934160000000000101e-01 -7.781580000000000163e-01
2.370000000000000000e+03 -2.387834472656249929e+00 6.030659179687500426e+00 1.020278320312500098e+00 2.522583007812500000e+02 2.172851562500000000e+01 7.153320312500000000e+01 -4.424820000000000420e-01 7.934160000000000101e-01 -7.781580000000000163e-01
2.380000000000000000e+03 -2.126777343750000160e+00 8.119116210937500355e+00 2.739902343750000302e+00 2.276611328125000000e+02 -7.977294921875000000e+01 8.697509765625000000e+01 -4.348530000000000451e-01 7.552710000000000257e-01 -8.468189999999999884e-01
2.390000000000000000e+03 -3.750600585937500231e+00 8.492739257812500497e+00 4.282294921875000604e+00 1.644287109375000000e+02 -4.736328125000000000e+01 9.051513671875000000e+01 -4.348530000000000451e-01 7.552710000000000257e-01 -8.468189999999999884e-01
2.400000000000000000e+03 -3.527863769531250249e+00 9.168134765625000071e+00 4.591252441406250107e+00 4.394531250000000000e+00 -1.635742187500000000e+01 9.332275390625000000e+01 -4.119659999999999989e-01 7.476420000000000288e-01 -8.544480000000000963e-01
2.410000000000000000e+03 -2.608176269531250036e+00 9.022038574218750995e+00 2.478845214843750089e+00 -1.126708984375000000e+02 3.967285156250000000e+00 8.856201171875000000e+01 -4.119659999999999989e-01 7.476420000000000288e-01 -8.544480000000000963e-01
2.420000000000000000e+03 6.083349609375000577e-01 8.157436523437500142e+00 -1.142424316406249973e+00 -1.619873046875000000e+02 4.925537109375000000e+01 8.270263671875000000e+01 -4.272240000000000482e-01 7.323840000000000350e-01 -9.002220000000000777e-01
2.430000000000000000e+03 1.839374999999999982e+00 6.344406738281250568e+00 -4.694238281250000533e+00 -1.641845703125000000e+02 2.166748046875000000e+01 7.086181640625000000e+01 -4.272240000000000482e-01 7.323840000000000350e-01 -9.002220000000000777e-01
2.440000000000000000e+03 1.906435546875000053e+00 4.895419921874999858e+00 -4.584067382812500036e+00 -1.251831054687500000e+02 -3.948974609375000000e+01 6.011962890625000000e+01 -3.661920000000000175e-01 7.934160000000000101e-01 -8.849640000000000839e-01
2.450000000000000000e+03 1.187929687500000053e+00 4.301455078125000497e+00 -2.670446777343750355e+00 -5.908203125000000000e+01 -4.467773437500000000e+01 4.565429687500000000e+01 -3.661920000000000175e-01 7.934160000000000101e-01 -8.849640000000000839e-01
2.460000000000000000e+03 9.527387695312500071e+00 5.786367187500000675e+00 2.876418457031250320e+00 1.507568359375000000e+01 -1.818237304687500000e+02 2.386474609375000000e+01 -3.509340000000000237e-01 8.239319999999999977e-01 -8.544480000000000963e-01
2.470000000000000000e+03 8.073610839843750497e+00 4.818779296875000284e+00 2.182102294921875085e+01 6.524658203125000000e+01 -9.075927734375000000e+01 1.470947265625000000e+01 -3.509340000000000237e-01 8.239319999999999977e-01 -8.544480000000000963e-01
2.480000000000000000e+03 -6.653364257812500071e+00 1.182181640625000085e+01 2.357896728515625284e+01 -2.096557617187500000e+02 -1.707153320312500000e+02 1.293945312500000000e+01 -3.967080000000000051e-01 7.934160000000000101e-01 -8.544480000000000963e-01
2.490000000000000000e+03 -9.759704589843750000e+00 1.650168457031250036e+00 6.394702148437500178e+00 -2.405395507812500000e+02 -1.487426757812500000e+02 -5.865478515625000000e+01 -3.967080000000000051e-01 7.934160000000000101e-01 -8.544480000000000963e-01
2.500000000000000000e+03 -1.084704345703125128e+01 -4.852309570312500320e+00 5.695356445312500071e+00 -2.627563476562500000e+02 -1.765747070312500000e+02 -1.489257812500000000e+02 -3.814500000000000113e-01 8.239319999999999977e-01 -7.781580000000000163e-01
2.510000000000000000e+03 -1.419528076171875064e+01 -3.038321777343750085e+01 1.783092041015624929e+01 -2.817993164062500000e+02 -2.001342773437500000e+02 -2.872924804687500000e+02 -3.814500000000000113e-01 8.239319999999999977e-01 -7.781580000000000163e-01
2.520000000000000000e+03 -9.723779296875000311e-01 -5.046785156250000171e+01 1.520837402343750089e+00 -2.216186523437500000e+02 -1.190185546875000000e+01 -3.610839843750000000e+02 -4.424820000000000420e-01 7.934160000000000101e-01 -6.866100000000000536e-01
2.530000000000000000e+03 2.995450927734375313e+01 -5.000800781250000426e+01 -3.776945800781250195e+00 -1.719970703125000000e+02 -7.690429687500000000e+01 -2.526855468750000000e+02 -4.424820000000000420e-01 7.934160000000000101e-01 -6.866100000000000536e-01
2.540000000000000000e+03 2.555725341796875227e+01 -2.202938964843750114e+01 -1.963676513671875057e+01 5.712890625000000000e+01 -9.881591796875000000e+01 -2.508544921875000000e+01 -4.729980000000000295e-01 7.476420000000000288e-01 -5.950619999999999798e-01
2.550000000000000000e+03 1.756986328125000085e+01 -3.820056152343750178e+00 -2.902763671875000284e+00 4.024658203125000000e+02 1.416015625000000000e+01 -1.141357421875000000e+01 -4.729980000000000295e-01 7.476420000000000288e-01 -5.950619999999999798e-01
2.560000000000000000e+03 1.362526611328125092e+01 2.739902343750000302e+00 4.369234130859375398e+01 3.611450195312500000e+02 -6.652832031250000000e+00 5.249023437500000000e+00 -5.187720000000000109e-01 7.323840000000000350e-01 -6.103199999999999736e-01
2.570000000000000000e+03 1.312470703125000027e+00 -6.296506347656250391e+00 1.899489990234375014e+01 -2.007446289062500000e+02 2.343750000000000000e+01 -1.855468750000000000e+01 -5.187720000000000109e-01 7.323840000000000350e-01 -6.103199999999999736e-01
2.580000000000000000e+03 2.859653320312500302e+00 -2.104982666015625270e+01 1.077758789062500111e-01 -2.094726562500000000e+02 -3.216552734375000000e+01 -3.411865234375000000e+01 -5.264010000000000078e-01 7.400130000000000319e-01 -6.789810000000000567e-01
2.590000000000000000e+03 4.011657714843750000e+00 -2.845522705078125014e+01 -7.443720703125000782e+00 -8.001708984375000000e+01 2.569580078125000000e+01 -5.377197265625000000e+01 -5.264010000000000078e-01 7.400130000000000319e-01 -6.789810000000000567e-01
2.600000000000000000e+03 6.691684570312500746e+00 -3.421764404296875028e+01 -2.442919921875000178e+00 3.540039062500000000e+01 8.911132812500000000e+01 -3.173828125000000000e+01 -5.569169999999999954e-01 7.400130000000000319e-01 -6.332070000000000753e-01
2.610000000000000000e+03 3.139870605468749964e+00 -2.039598632812500156e+01 -6.121669921875000142e+00 9.002685546875000000e+01 9.045410156250000000e+01 4.821777343750000000e+00 -5.569169999999999954e-01 7.400130000000000319e-01 -6.332070000000000753e-01
2.620000000000000000e+03 2.706372070312499933e-01 -1.229124023437500135e+01 -2.967429199218750036e+00 1.028442382812500000e+02 5.126953125000000000e+01 1.800537109375000000e+01 -5.798039999999999861e-01 7.476420000000000288e-01 -6.255780000000000785e-01
2.630000000000000000e+03 -2.059716796875000200e-01 -1.095960937500000121e+01 1.997446289062499991e+00 8.758544921875000000e+01 3.356933593750000000e+01 2.960205078125000000e+01 -5.798039999999999861e-01 7.476420000000000288e-01 -6.255780000000000785e-01
2.640000000000000000e+03 -7.903564453125000444e-01 -1.282772460937500014e+01 1.435574707031249986e+01 -1.306152343750000000e+01 6.970214843750000000e+01 4.461669921875000000e+01 -5.721749999999999892e-01 7.400130000000000319e-01 -6.484650000000000691e-01
2.650000000000000000e+03 -1.916015625000000167e-01 -1.670047119140625114e+01 6.583908691406250568e+00 -1.114501953125000000e+02 5.493164062500000000e+00 6.256103515625000000e+01 -5.721749999999999892e-01 7.400130000000000319e-01 -6.484650000000000691e-01
2.660000000000000000e+03 3.563789062500000160e+00 -1.691123291015625085e+01 -1.046863037109375050e+01 -1.177978515625000000e+02 6.542968750000000000e+01 7.220458984375000000e+01 -5.492879999999999985e-01 7.629000000000000226e-01 -6.866100000000000536e-01
2.670000000000000000e+03 -4.598437499999999956e-01 -1.737347167968750128e+01 -3.939807128906250178e+00 -2.258300781250000000e+00 3.845214843750000000e+01 6.823730468750000000e+01 -5.492879999999999985e-01 7.629000000000000226e-01 -6.866100000000000536e-01
2.680000000000000000e+03 -1.539997558593749982e+00 -1.375459716796875043e+01 -3.178190917968750195e+00 7.788085937500000000e+01 4.772949218750000000e+01 5.029296875000000000e+01 -5.798039999999999861e-01 7.323840000000000350e-01 -6.713520000000000598e-01
2.690000000000000000e+03 -7.041357421875000799e-01 -1.192480224609375128e+01 -4.813989257812500422e-01 1.069946289062500000e+02 5.230712890625000000e+01 2.825927734375000000e+01 -5.798039999999999861e-01 7.323840000000000350e-01 -6.713520000000000598e-01
2.700000000000000000e+03 3.712280273437500444e-01 -9.891430664062500711e+00 1.365161132812500178e-01 9.643554687500000000e+01 4.919433593750000000e+01 1.715087890625000000e+01 -5.264010000000000078e-01 7.400130000000000319e-01 -6.484650000000000691e-01
2.710000000000000000e+03 -3.496728515624999978e-01 -9.417216796875001350e+00 4.526586914062500355e-01 9.216308593750000000e+01 3.686523437500000000e+01 6.774902343750000000e+00 -5.264010000000000078e-01 7.400130000000000319e-01 -6.484650000000000691e-01
2.720000000000000000e+03 -8.717871093750000355e-01 -7.711962890625000178e+00 6.227050781249999778e-01 8.520507812500000000e+01 2.655029296875000000e+01 -4.760742187500000000e+00 -4.958850000000000202e-01 7.552710000000000257e-01 -7.247550000000000381e-01
2.730000000000000000e+03 -1.027463378906249947e+00 -3.961362304687500391e+00 1.496887207031250000e+00 9.564208984375000000e+01 2.716064453125000000e+01 -1.434326171875000000e+01 -4.958850000000000202e-01 7.552710000000000257e-01 -7.247550000000000381e-01
2.740000000000000000e+03 -5.652246093750000755e-01 -1.690883789062500142e+00 1.757944335937499991e+00 1.168212890625000000e+02 3.686523437500000000e+01 -2.453613281250000000e+01 -5.111430000000000140e-01 7.552710000000000257e-01 -7.552710000000000257e-01
2.750000000000000000e+03 -2.438129882812499982e+00 1.161584472656250089e+00 2.471660156250000018e+00 1.106567382812500000e+02 2.349853515625000000e+01 -3.594970703125000000e+01 -5.111430000000000140e-01 7.552710000000000257e-01 -7.552710000000000257e-01
2.760000000000000000e+03 -2.114802246093749893e+00 3.398532714843750302e+00 7.089257812500000533e-01 6.768798828125000000e+01 1.239013671875000000e+01 -5.749511718750000000e+01 -4.882560000000000233e-01 7.323840000000000350e-01 -7.934160000000000101e-01
2.770000000000000000e+03 -1.971101074218750027e+00 5.688171386718750000e+00 -1.549577636718750151e+00 5.676269531250000000e+01 -9.155273437500000000e-01 -7.934570312500000000e+01 -4.882560000000000233e-01 7.323840000000000350e-01 -7.934160000000000101e-01
2.780000000000000000e+03 -1.355581054687500009e+00 8.507109375000000639e+00 -1.020278320312500098e+00 5.920410156250000000e+01 -3.601074218750000000e+00 -9.436035156250000000e+01 -5.416590000000000016e-01 7.094970000000000443e-01 -8.010450000000000070e-01
2.790000000000000000e+03 -1.604663085937500178e+00 1.034408935546874986e+01 -3.712280273437500444e-01 3.698730468750000000e+01 -3.100585937500000000e+01 -1.110229492187500000e+02 -5.416590000000000016e-01 7.094970000000000443e-01 -8.010450000000000070e-01
2.800000000000000000e+03 -6.466552734375000666e-01 1.120390136718750007e+01 3.927832031250000355e-01 -4.168701171875000000e+01 -5.487060546875000000e+01 -1.215209960937500000e+02 -5.264010000000000078e-01 6.637230000000000629e-01 -8.315609999999999946e-01
2.810000000000000000e+03 -1.595083007812500009e+00 1.149609375000000000e+01 6.586303710937500000e-01 -1.569213867187500000e+02 -5.499267578125000000e+01 -1.267700195312500000e+02 -5.264010000000000078e-01 6.637230000000000629e-01 -8.315609999999999946e-01
2.820000000000000000e+03 -1.614243164062500124e+00 6.492897949218749964e+00 -3.841611328125000391e+00 -1.574096679687500000e+02 -4.418945312500000000e+01 -1.161499023437500000e+02 -5.798039999999999861e-01 7.171260000000000412e-01 -8.086740000000000039e-01
2.830000000000000000e+03 -2.220183105468750195e+00 4.308640136718750568e+00 -4.828359375000000675e+00 -1.077880859375000000e+02 -2.441406250000000000e+01 -1.027221679687500000e+02 -5.798039999999999861e-01 7.171260000000000412e-01 -8.086740000000000039e-01
2.840000000000000000e+03 -2.478845214843750089e+00 2.598596191406250089e+00 -3.075205078125000213e+00 -6.384277343750000000e+01 -7.873535156250000000e+00 -8.605957031250000000e+01 -6.484650000000000691e-01 6.484650000000000691e-01 -8.010450000000000070e-01
2.850000000000000000e+03 -1.819017333984374929e+01 1.250200195312500151e+00 1.347198486328125000e+01 7.214355468750000000e+01 1.441040039062500000e+02 -6.250000000000000000e+01 -6.484650000000000691e-01 6.484650000000000691e-01 -8.010450000000000070e-01
2.860000000000000000e+03 -1.777104492187500107e+00 1.135718261718750099e+01 3.273273193359375455e+01 3.857421875000000000e+01 2.502441406250000000e+01 -6.445312500000000000e+01 -6.408360000000000722e-01 6.560940000000000660e-01 -7.629000000000000226e-01
2.870000000000000000e+03 9.637558593750000568e+00 9.314230957031250924e+00 2.033371582031250213e+01 -2.927856445312500000e+02 9.216308593750000000e+01 -4.962158203125000000e+01 -6.408360000000000722e-01 6.560940000000000660e-01 -7.629000000000000226e-01
2.880000000000000000e+03 1.230561035156250149e+01 1.420246582031249982e+00 -8.669970703125000622e-01 -3.037109375000000000e+02 3.045654296875000000e+01 2.026367187500000000e+01 -6.484650000000000691e-01 6.332070000000000753e-01 -7.705290000000000195e-01
2.890000000000000000e+03 1.716270996093750156e+01 -8.873547363281250711e+00 1.219064941406250036e+01 -1.617431640625000000e+02 2.108154296875000000e+02 1.256713867187500000e+02 -6.484650000000000691e-01 6.332070000000000753e-01 -7.705290000000000195e-01
2.900000000000000000e+03 3.215074218750000057e+01 -2.782294189453125099e+01 2.891028076171875227e+01 -4.563598632812500000e+02 1.649169921875000000e+02 2.954711914062500000e+02 -6.179490000000000816e-01 6.484650000000000691e-01 -6.942390000000000505e-01
2.910000000000000000e+03 1.822370361328125199e+01 -4.549100097656250341e+01 -6.524033203125000568e+00 -3.425292968750000000e+02 1.525878906250000000e+01 4.017944335937500000e+02 -6.179490000000000816e-01 6.484650000000000691e-01 -6.942390000000000505e-01
2.920000000000000000e+03 -4.275109863281250533e+00 -4.770160400390625455e+01 2.562670898437500178e-01 -2.796020507812500000e+02 5.206298828125000000e+01 3.116455078125000000e+02 -5.798039999999999861e-01 7.171260000000000412e-01 -6.713520000000000598e-01
2.930000000000000000e+03 -1.887275390625000071e+01 -3.620311523437500512e+01 -1.356299560546875149e+01 -2.943115234375000000e+02 7.958984375000000000e+01 1.282958984375000000e+02 -5.798039999999999861e-01 7.171260000000000412e-01 -6.713520000000000598e-01
2.940000000000000000e+03 -3.619114013671875085e+01 -9.342971191406251208e+00 -1.180026123046875064e+01 1.491699218750000000e+02 -4.309082031250000000e+01 -5.529785156250000000e+01 -5.035140000000000171e-01 7.934160000000000101e-01 -5.798039999999999861e-01
2.950000000000000000e+03 -1.442041259765625050e+01 -7.810158691406249964e+00 1.963916015625000178e-01 3.207397460937500000e+02 4.626464843750000000e+01 -1.237792968750000000e+02 -5.035140000000000171e-01 7.934160000000000101e-01 -5.798039999999999861e-01
2.960000000000000000e+03 -5.003195800781250036e+00 -1.181702636718750021e+01 7.364685058593750000e+00 3.361206054687500000e+02 1.998901367187500000e+02 -8.074951171875000000e+01 -5.111430000000000140e-01 8.163030000000000008e-01 -6.179490000000000816e-01
2.970000000000000000e+03 2.114562744140625128e+01 -2.578238525390625213e+01 -6.749165039062500426e+00 3.449707031250000000e+02 2.795410156250000000e+01 -4.882812500000000000e-01 -5.111430000000000140e-01 8.163030000000000008e-01 -6.179490000000000816e-01
2.980000000000000000e+03 1.760339355468750089e+00 -2.450583984374999957e+01 1.604663085937500000e+01 9.735107421875000000e+01 -8.117675781250000000e+00 4.144287109375000000e+01 -5.035140000000000171e-01 7.629000000000000226e-01 -7.629000000000000226e-01
2.990000000000000000e+03 3.688330078125000355e+00 -2.399809570312500284e+01 9.747729492187501066e+00 -7.739257812500000000e+01 -4.937744140625000000e+01 2.532958984375000000e+01 -5.035140000000000171e-01 7.629000000000000226e-01 -7.629000000000000226e-01
3.000000000000000000e+03 2.943479003906249947e+00 -1.704774902343750043e+01 3.499123535156249964e+00 -1.576538085937500000e+02 -3.179931640625000000e+01 -1.159667968750000000e+01 -5.111430000000000140e-01 7.400130000000000319e-01 -7.552710000000000257e-01
3.010000000000000000e+03 5.036726074218750071e+00 -1.323487792968750121e+01 -6.540798339843750142e+00 -1.535644531250000000e+02 6.225585937500000000e+00 -3.839111328125000000e+01 -5.111430000000000140e-01 7.400130000000000319e-01 -7.552710000000000257e-01
3.020000000000000000e+03 5.942043457031250142e+00 -1.431503173828125064e+01 -7.824528808593750107e+00 -2.844238281250000000e+01 1.934814453125000000e+01 -6.085205078125000000e+01 -4.882560000000000233e-01 7.934160000000000101e-01 -7.323840000000000350e-01
3.030000000000000000e+03 6.171965332031250639e+00 -1.543350585937500163e+01 -1.616638183593750000e+00 5.847167968750000000e+01 2.441406250000000000e+01 -7.043457031250000000e+01 -4.882560000000000233e-01 7.934160000000000101e-01 -7.323840000000000350e-01
3.040000000000000000e+03 4.459526367187500284e+00 -1.671484130859375128e+01 2.220183105468750195e+00 7.556152343750000000e+01 8.422851562500000000e+00 -7.537841796875000000e+01 -5.264010000000000078e-01 7.552710000000000257e-01 -6.942390000000000505e-01
3.050000000000000000e+03 2.737507324218749982e+00 -1.638911865234375043e+01 3.106340332031250373e+00 7.232666015625000000e+01 -1.116943359375000000e+01 -7.183837890625000000e+01 -5.264010000000000078e-01 7.552710000000000257e-01 -6.942390000000000505e-01
3.060000000000000000e+03 2.023791503906250178e+00 -1.545506103515625007e+01 2.857258300781249982e+00 6.439208984375000000e+01 -2.301025390625000000e+01 -5.999755859375000000e+01 -5.111430000000000140e-01 7.705290000000000195e-01 -6.942390000000000505e-01
3.070000000000000000e+03 1.499282226562500098e+00 -1.246847167968750014e+01 -4.047583007812500244e-01 4.809570312500000000e+01 -4.534912109375000000e+01 -4.962158203125000000e+01 -5.111430000000000140e-01 7.705290000000000195e-01 -6.942390000000000505e-01
3.080000000000000000e+03 -2.107617187500000211e-01 -1.028181884765625043e+01 -2.342329101562500071e+00 5.303955078125000000e+01 -7.257080078125000000e+01 -3.656005859375000000e+01 -5.111430000000000140e-01 7.400130000000000319e-01 -7.552710000000000257e-01
3.090000000000000000e+03 -4.102668457031250604e+00 -9.316625976562500355e+00 -6.322851562500000355e-01 5.847167968750000000e+01 -2.685546875000000000e+01 -2.111816406250000000e+01 -5.111430000000000140e-01 7.400130000000000319e-01 -7.552710000000000257e-01
3.100000000000000000e+03 -2.193837890625000231e+00 -8.945397949218749645e+00 -1.635798339843750115e+00 6.304931640625000000e+01 -6.958007812500000000e+00 -9.277343750000000000e+00 -5.721749999999999892e-01 7.247550000000000381e-01 -7.247550000000000381e-01
3.110000000000000000e+03 -2.962639160156250284e+00 -7.405400390625000107e+00 -5.771997070312500089e-01 1.032104492187500000e+02 -2.111816406250000000e+01 5.126953125000000000e+00 -5.721749999999999892e-01 7.247550000000000381e-01 -7.247550000000000381e-01
3.120000000000000000e+03 -1.971101074218750027e+00 -5.424719238281250355e+00 3.089575195312500022e-01 1.528320312500000000e+02 -3.674316406250000000e+01 1.647949218750000000e+01 -5.645459999999999923e-01 7.171260000000000412e-01 -7.629000000000000226e-01
3.130000000000000000e+03 -9.604028320312500977e-01 -1.765129394531250062e+00 1.717229003906250107e+00 1.816406250000000000e+02 -4.187011718750000000e+01 3.430175781250000000e+01 -5.645459999999999923e-01 7.171260000000000412e-01 -7.629000000000000226e-01
3.140000000000000000e+03 -1.389111328125000044e+00 1.027463378906249947e+00 2.074086914062500231e+00 1.915893554687500000e+02 -9.338378906250000000e+00 5.310058593750000000e+01 -5.264010000000000078e-01 6.942390000000000505e-01 -7.705290000000000195e-01
3.150000000000000000e+03 -2.339934082031250195e+00 3.281176757812500178e+00 1.951940917968750133e+00 1.897583007812500000e+02 1.617431640625000000e+01 6.860351562500000000e+01 -5.264010000000000078e-01 6.942390000000000505e-01 -7.705290000000000195e-01
3.160000000000000000e+03 -2.124382324218750284e+00 5.328918457031250000e+00 1.571132812500000142e+00 1.737060546875000000e+02 2.899169921875000000e+01 8.374023437500000000e+01 -5.416590000000000016e-01 6.637230000000000629e-01 -8.468189999999999884e-01
3.170000000000000000e+03 -2.711162109375000018e+00 7.252119140625000071e+00 8.406518554687500977e-01 1.482543945312500000e+02 9.826660156250000000e+00 1.023559570312500000e+02 -5.416590000000000016e-01 6.637230000000000629e-01 -8.468189999999999884e-01
3.180000000000000000e+03 -4.495451660156250639e+00 8.272397460937501279e+00 1.369951171875000151e+00 1.002807617187500000e+02 -3.503417968750000000e+01 1.133422851562500000e+02 -5.264010000000000078e-01 6.942390000000000505e-01 -8.773350000000000870e-01
3.190000000000000000e+03 -3.535048828125000320e+00 8.672365722656250497e+00 2.699187011718750195e+00 5.181884765625000000e+01 -7.690429687500000000e+00 1.138305664062500000e+02 -5.264010000000000078e-01 6.942390000000000505e-01 -8.773350000000000870e-01
3.200000000000000000e+03 -2.260898437500000302e+00 9.369316406250000284e+00 6.969506835937500089e-01 -2.227783203125000000e+01 4.815673828125000000e+01 1.095581054687500000e+02 -5.111430000000000140e-01 7.094970000000000443e-01 -9.078510000000000746e-01
3.210000000000000000e+03 1.128054199218750053e+00 8.636440429687500142e+00 -3.616479492187500422e-01 -8.087158203125000000e+01 2.984619140625000000e+01 9.478759765625000000e+01 -5.111430000000000140e-01 7.094970000000000443e-01 -9.078510000000000746e-01
3.220000000000000000e+03 1.537602539062500107e+00 6.995852050781250497e+00 -1.168769531250000160e+00 -1.256103515625000000e+02 1.220703125000000000e+01 8.251953125000000000e+01 -5.111430000000000140e-01 7.094970000000000443e-01 -9.231090000000000684e-01
3.230000000000000000e+03 9.484277343750000533e-01 5.338498535156250391e+00 -1.441801757812499973e+00 -1.174316406250000000e+02 -1.550292968750000000e+01 6.829833984375000000e+01 -5.111430000000000140e-01 7.094970000000000443e-01 -9.231090000000000684e-01
3.240000000000000000e+03 9.901010742187500213e+00 7.242539062500000568e+00 4.380490722656250391e+00 -3.833007812500000000e+01 -1.729125976562500000e+02 4.559326171875000000e+01 -4.348530000000000451e-01 7.400130000000000319e-01 -8.773350000000000870e-01
3.250000000000000000e+03 2.217788085937500320e+00 5.647456054687499893e+00 3.517325683593750085e+01 4.638671875000000000e+00 -9.997558593750000000e+01 4.083251953125000000e+01 -4.348530000000000451e-01 7.400130000000000319e-01 -8.773350000000000870e-01
3.260000000000000000e+03 -9.376501464843750355e+00 1.178828613281249993e+01 1.326122314453125028e+01 -2.744140625000000000e+02 -9.411621093750000000e+01 2.380371093750000000e+01 -4.729980000000000295e-01 7.629000000000000226e-01 -8.697060000000000901e-01
3.270000000000000000e+03 -1.125898681640625121e+01 2.610571289062499911e+00 -3.520678710937500400e-01 -2.795410156250000000e+02 -1.061401367187500000e+02 -5.590820312500000000e+01 -4.729980000000000295e-01 7.629000000000000226e-01 -8.697060000000000901e-01
3.280000000000000000e+03 -5.096601562500000071e+00 -2.215393066406250000e+00 -8.598120117187499911e-01 -2.647094726562500000e+02 -1.200561523437500000e+02 -1.451416015625000000e+02 -4.577400000000000357e-01 7.781580000000000163e-01 -7.629000000000000226e-01
3.290000000000000000e+03 5.230722656250000213e+00 -1.097397949218750135e+01 4.943320312500000036e+00 -2.298583984375000000e+02 -1.652221679687500000e+02 -2.180175781250000000e+02 -4.577400000000000357e-01 7.781580000000000163e-01 -7.629000000000000226e-01
3.300000000000000000e+03 7.616162109375000933e-01 -3.333388183593750398e+01 1.809916259765624957e+01 -1.685791015625000000e+02 -1.698608398437500000e+02 -2.881469726562500000e+02 -4.882560000000000233e-01 8.239319999999999977e-01 -6.866100000000000536e-01
3.310000000000000000e+03 1.340252929687500050e+01 -5.408193603515625369e+01 5.637875976562500391e+00 -1.649780273437500000e+02 1.658935546875000000e+02 -2.952880859375000000e+02 -4.882560000000000233e-01 8.239319999999999977e-01 -6.866100000000000536e-01
3.320000000000000000e+03 5.421845214843749972e+01 -4.976371582031250540e+01 -1.437011718749999986e-02 -2.291870117187500000e+02 -6.561279296875000000e+01 -1.486816406250000000e+02 -5.492879999999999985e-01 7.629000000000000226e-01 -6.408360000000000722e-01
3.330000000000000000e+03 1.485151611328125121e+01 -1.231758544921875043e+01 -1.254511230468750149e+01 1.397705078125000000e+02 1.562500000000000000e+01 -2.026367187500000000e+01 -5.492879999999999985e-01 7.629000000000000226e-01 -6.408360000000000722e-01
3.340000000000000000e+03 1.067939208984375021e+01 -7.767048339843750426e+00 3.547023925781250142e+00 3.670043945312500000e+02 1.019897460937500000e+02 -3.015136718750000000e+01 -6.179490000000000816e-01 7.094970000000000443e-01 -6.026909999999999767e-01
3.350000000000000000e+03 3.903881835937500266e+00 -1.013811767578125078e+01 4.177872070312500341e+01 1.724853515625000000e+02 4.913330078125000000e+01 -3.771972656250000000e+01 -6.179490000000000816e-01 7.094970000000000443e-01 -6.026909999999999767e-01
3.360000000000000000e+03 -3.439248046874999964e+00 -2.171085205078125213e+01 8.064030761718750995e+00 -2.148437500000000000e+02 1.347656250000000000e+02 -6.359863281250000000e+01 -6.637230000000000629e-01 6.637230000000000629e-01 -6.942390000000000505e-01
3.370000000000000000e+03 7.688012695312500533e+00 -2.674278808593750156e+01 -2.234553222656249893e+00 -2.261962890625000000e+02 1.029663085937500000e+02 -5.865478515625000000e+01 -6.637230000000000629e-01 6.637230000000000629e-01 -6.942390000000000505e-01
3.380000000000000000e+03 3.075205078125000213e+00 -3.015569091796875156e+01 -5.891748046875000533e+00 -7.861328125000000000e+01 1.016845703125000000e+02 -2.874755859375000000e+01 -6.484650000000000691e-01 6.942390000000000505e-01 -6.637230000000000629e-01
3.390000000000000000e+03 2.936293945312500320e+00 -2.509740966796875128e+01 -9.486672363281250853e+00 3.698730468750000000e+01 1.247558593750000000e+02 1.953125000000000000e+00 -6.484650000000000691e-01 6.942390000000000505e-01 -6.637230000000000629e-01
3.400000000000000000e+03 -8.262817382812500666e-01 -1.643941406249999915e+01 -6.444997558593750675e+00 8.911132812500000000e+01 1.016845703125000000e+02 1.379394531250000000e+01 -6.408360000000000722e-01 6.713520000000000598e-01 -6.713520000000000598e-01
3.410000000000000000e+03 -7.951464843750000178e-01 -1.298340087890625050e+01 -1.865720214843750169e+00 9.973144531250000000e+01 7.257080078125000000e+01 2.447509765625000000e+01 -6.408360000000000722e-01 6.713520000000000598e-01 -6.713520000000000598e-01
3.420000000000000000e+03 -1.631008300781250142e+00 -1.229603027343750021e+01 2.565065917968750053e+00 9.161376953125000000e+01 6.066894531250000000e+01 2.966308593750000000e+01 -5.874329999999999830e-01 7.094970000000000443e-01 -6.942390000000000505e-01
3.430000000000000000e+03 -4.109853515624999787e+00 -1.113923583984375121e+01 2.500400390625000302e+00 4.693603515625000000e+01 8.508300781250000000e+01 3.991699218750000000e+01 -5.874329999999999830e-01 7.094970000000000443e-01 -6.942390000000000505e-01
3.440000000000000000e+03 -4.837939453125000289e-01 -1.297861083984374986e+01 5.199587402343750497e+00 -1.098632812500000000e+00 5.236816406250000000e+01 5.017089843750000000e+01 -6.179490000000000816e-01 6.789810000000000567e-01 -7.552710000000000257e-01
3.450000000000000000e+03 -3.774550781250000320e+00 -1.345761474609374986e+01 5.166057128906250462e+00 -6.152343750000000000e+01 4.406738281250000000e+01 5.700683593750000000e+01 -6.179490000000000816e-01 6.789810000000000567e-01 -7.552710000000000257e-01
3.460000000000000000e+03 -4.162543945312500604e+00 -1.478685058593750057e+01 2.124382324218750284e+00 -7.525634765625000000e+01 6.842041015625000000e+01 5.004882812500000000e+01 -6.332070000000000753e-01 6.942390000000000505e-01 -7.400130000000000319e-01
3.470000000000000000e+03 -4.346960449218750355e+00 -1.524669433593750156e+01 -6.251000976562500755e-01 -4.400634765625000000e+01 6.909179687500000000e+01 3.704833984375000000e+01 -6.332070000000000753e-01 6.942390000000000505e-01 -7.400130000000000319e-01
3.480000000000000000e+03 -3.144660644531250160e+00 -1.386476806640625092e+01 -2.754272460937500000e+00 -1.037597656250000000e+00 6.170654296875000000e+01 2.203369140625000000e+01 -5.721749999999999892e-01 7.400130000000000319e-01 -7.400130000000000319e-01
3.490000000000000000e+03 -2.385439453125000053e+00 -1.328038330078125107e+01 -2.596201171875000213e+00 4.125976562500000000e+01 4.406738281250000000e+01 7.141113281250000000e+00 -5.721749999999999892e-01 7.400130000000000319e-01 -7.400130000000000319e-01
3.500000000000000000e+03 -1.355581054687500009e+00 -1.027702880859374979e+01 -2.361489257812499964e+00 9.503173828125000000e+01 2.661132812500000000e+01 -3.356933593750000000e+00 -5.645459999999999923e-01 7.018680000000000474e-01 -7.629000000000000226e-01
3.510000000000000000e+03 1.963916015625000178e-01 -5.740861816406249929e+00 -1.432221679687500027e+00 1.517333984375000000e+02 1.995849609375000000e+01 -9.338378906250000000e+00 -5.645459999999999923e-01 7.018680000000000474e-01 -7.629000000000000226e-01
3.520000000000000000e+03 7.975415039062500044e-01 -2.131567382812499911e+00 4.837939453125000289e-01 1.833496093750000000e+02 2.227783203125000000e+01 -1.434326171875000000e+01 -6.103199999999999736e-01 7.171260000000000412e-01 -8.086740000000000039e-01
3.530000000000000000e+03 5.412744140624999867e-01 1.492097167968750027e+00 2.165097656249999947e+00 1.787109375000000000e+02 6.878662109375000000e+01 -2.124023437500000000e+01 -6.103199999999999736e-01 7.171260000000000412e-01 -8.086740000000000039e-01
3.540000000000000000e+03 -1.353186035156250133e+00 3.956572265625000195e+00 4.660708007812500497e+00 1.435546875000000000e+02 8.361816406250000000e+00 -4.290771484375000000e+01 -5.569169999999999954e-01 6.942390000000000505e-01 -8.468189999999999884e-01
3.550000000000000000e+03 -6.466552734375000666e-01 6.085744628906250675e+00 2.129172363281250036e+00 6.695556640625000000e+01 4.089355468750000000e+00 -5.834960937500000000e+01 -5.569169999999999954e-01 6.942390000000000505e-01 -8.468189999999999884e-01
3.560000000000000000e+03 -4.382885742187500044e-01 8.468789062500000853e+00 -5.724096679687500355e-01 3.985595703125000000e+01 -2.014160156250000000e+00 -7.684326171875000000e+01 -5.569169999999999954e-01 6.637230000000000629e-01 -9.078510000000000746e-01
3.570000000000000000e+03 1.013093261718750027e+00 1.056682617187500028e+01 -2.869233398437500249e+00 3.643798828125000000e+01 -2.227783203125000000e+01 -9.667968750000000000e+01 -5.569169999999999954e-01 6.637230000000000629e-01 -9.078510000000000746e-01
3.580000000000000000e+03 -1.173559570312499994e-01 1.222178466796875007e+01 -1.947150878906250160e+00 4.028320312500000000e+00 -4.602050781250000000e+01 -1.128540039062500000e+02 -5.874329999999999830e-01 6.637230000000000629e-01 -9.078510000000000746e-01
3.590000000000000000e+03 -6.897656250000000488e-01 1.212119384765625085e+01 -1.077758789062500111e-01 -8.526611328125000000e+01 -5.364990234375000000e+01 -1.223144531250000000e+02 -5.874329999999999830e-01 6.637230000000000629e-01 -9.078510000000000746e-01
3.600000000000000000e+03 -4.813989257812500422e-01 8.986113281250000639e+00 -1.487307128906250053e+00 -1.674194335937500000e+02 -5.578613281250000000e+01 -1.160278320312500000e+02 -6.332070000000000753e-01 6.179490000000000816e-01 -8.773350000000000870e-01
3.610000000000000000e+03 -3.070415039062500018e+00 6.294111328125000071e+00 -3.321892089843750284e+00 -1.434936523437500000e+02 -3.436279296875000000e+01 -1.022949218750000000e+02 -6.332070000000000753e-01 6.179490000000000816e-01 -8.773350000000000870e-01
3.620000000000000000e+03 -2.304008789062500284e+00 4.691843261718750213e+00 -4.291875000000000107e+00 -1.113891601562500000e+02 8.605957031250000000e+00 -8.593750000000000000e+01 -6.789810000000000567e-01 5.874329999999999830e-01 -8.620770000000000932e-01
3.630000000000000000e+03 -8.775351562500000924e+00 3.348237304687500249e+00 5.508544921875000444e-01 -1.666259765625000000e+01 1.015014648437500000e+02 -6.677246093750000000e+01 -6.789810000000000567e-01 5.874329999999999830e-01 -8.620770000000000932e-01
3.640000000000000000e+03 -8.059240722656250355e+00 7.278464355468750036e+00 2.179228271484375057e+01 1.813964843750000000e+02 9.216308593750000000e+01 -7.000732421875000000e+01 -6.637230000000000629e-01 6.026909999999999767e-01 -8.315609999999999946e-01
3.650000000000000000e+03 3.489543457031250018e+00 1.359652587890625064e+01 2.504471923828124957e+01 -2.014770507812500000e+02 1.037597656250000000e+02 -8.288574218750000000e+01 -6.637230000000000629e-01 6.026909999999999767e-01 -8.315609999999999946e-01
3.660000000000000000e+03 1.108654541015625128e+01 5.508544921875000000e+00 2.241738281249999964e+00 -4.247436523437500000e+02 4.901123046875000000e+01 -1.666259765625000000e+01 -7.247550000000000381e-01 6.026909999999999767e-01 -8.163030000000000008e-01
3.670000000000000000e+03 1.289718017578125142e+01 -5.822292480468750142e+00 -8.140671386718750568e+00 -3.029174804687500000e+02 1.128540039062500000e+02 6.939697265625000000e+01 -7.247550000000000381e-01 6.026909999999999767e-01 -8.163030000000000008e-01
3.680000000000000000e+03 1.968706054687499929e+01 -1.735670654296875171e+01 2.035527099609375057e+01 -1.967163085937500000e+02 2.784423828125000000e+02 1.875610351562500000e+02 -6.866100000000000536e-01 6.255780000000000785e-01 -7.934160000000000101e-01
3.690000000000000000e+03 3.262974609375000057e+01 -4.532334960937500057e+01 1.267683837890625043e+01 -4.259643554687500000e+02 8.740234375000000000e+01 3.551025390625000000e+02 -6.866100000000000536e-01 6.255780000000000785e-01 -7.934160000000000101e-01
3.700000000000000000e+03 8.538244628906250355e+00 -5.533453125000000483e+01 -4.689448242187499893e+00 -3.192749023437500000e+02 -7.135009765625000000e+01 3.151245117187500000e+02 -6.484650000000000691e-01 6.789810000000000567e-01 -8.010450000000000070e-01
3.710000000000000000e+03 -1.824525878906250043e+01 -4.435336669921875341e+01 -6.677314453125000604e+00 -3.315429687500000000e+02 -2.593994140625000000e+01 1.780395507812500000e+02 -6.484650000000000691e-01 6.789810000000000567e-01 -8.010450000000000070e-01
3.720000000000000000e+03 -3.243574951171875398e+01 -7.587421875000000426e+00 -2.621109374999999986e+01 -3.485107421875000000e+01 2.770996093750000000e+01 8.923339843750000000e+01 -5.492879999999999985e-01 7.781580000000000163e-01 -7.018680000000000474e-01
3.730000000000000000e+03 -1.683459228515625128e+01 -4.837939453125000178e+00 -6.703659667968750568e+00 2.149658203125000000e+02 6.140136718750000000e+01 -8.172607421875000000e+01 -5.492879999999999985e-01 7.781580000000000163e-01 -7.018680000000000474e-01
3.740000000000000000e+03 -8.552614746093750497e+00 -6.205495605468750675e+00 3.089575195312500355e+00 3.633422851562500000e+02 9.112548828125000000e+01 -1.032104492187500000e+02 -4.882560000000000233e-01 7.781580000000000163e-01 -7.018680000000000474e-01
3.750000000000000000e+03 1.331630859375000142e+00 -1.852068603515625256e+01 1.012853759765625128e+01 3.326416015625000000e+02 2.289428710937500000e+02 -4.663085937500000000e+01 -4.882560000000000233e-01 7.781580000000000163e-01 -7.018680000000000474e-01
3.760000000000000000e+03 1.669807617187500171e+01 -3.000240966796875242e+01 2.864443359375000142e+01 2.228393554687500000e+02 -4.272460937500000000e+01 1.757812500000000000e+01 -5.035140000000000171e-01 7.476420000000000288e-01 -7.934160000000000101e-01
3.770000000000000000e+03 4.948110351562500675e+00 -2.721460693359374972e+01 1.329954345703125007e+01 -5.133056640625000000e+01 -3.222656250000000000e+01 1.611328125000000000e+01 -5.035140000000000171e-01 7.476420000000000288e-01 -7.934160000000000101e-01
3.780000000000000000e+03 2.668051757812500036e+00 -1.703098388671875085e+01 3.412902832031250000e+00 -1.196899414062500000e+02 -4.931640625000000000e+01 -1.898193359375000000e+01 -5.035140000000000171e-01 7.629000000000000226e-01 -8.391899999999999915e-01
3.790000000000000000e+03 4.145778808593750142e+00 -1.503114257812500121e+01 -3.273991699218750107e+00 -1.547851562500000000e+02 -1.135253906250000000e+01 -4.150390625000000000e+01 -5.035140000000000171e-01 7.629000000000000226e-01 -8.391899999999999915e-01
3.800000000000000000e+03 5.412744140625000533e+00 -1.692560302734375099e+01 -5.884562988281250462e+00 -1.081542968750000000e+02 9.399414062500000000e+00 -5.786132812500000000e+01 -5.187720000000000109e-01 7.323840000000000350e-01 -8.391899999999999915e-01
3.810000000000000000e+03 4.473896484375000426e+00 -1.691362792968750028e+01 -4.699028320312500284e+00 -2.911376953125000000e+01 2.423095703125000000e+01 -6.561279296875000000e+01 -5.187720000000000109e-01 7.323840000000000350e-01 -8.391899999999999915e-01
3.820000000000000000e+03 2.131567382812499911e+00 -1.756267822265625256e+01 -1.913620605468750124e+00 2.825927734375000000e+01 2.185058593750000000e+01 -7.476806640625000000e+01 -5.111430000000000140e-01 7.400130000000000319e-01 -7.705290000000000195e-01
3.830000000000000000e+03 7.688012695312500533e-01 -1.794588134765625043e+01 5.340893554687500266e-01 6.420898437500000000e+01 -8.300781250000000000e+00 -8.599853515625000000e+01 -5.111430000000000140e-01 7.400130000000000319e-01 -7.705290000000000195e-01
3.840000000000000000e+03 -3.568579101562500133e-01 -1.740939697265624986e+01 1.844165039062500178e+00 7.952880859375000000e+01 -1.562500000000000000e+01 -8.679199218750000000e+01 -5.340300000000000047e-01 7.323840000000000350e-01 -8.239319999999999977e-01
3.850000000000000000e+03 2.059716796875000089e+00 -1.492815673828125078e+01 1.132844238281250027e+00 8.660888671875000000e+01 -2.423095703125000000e+01 -8.197021484375000000e+01 -5.340300000000000047e-01 7.323840000000000350e-01 -8.239319999999999977e-01
3.860000000000000000e+03 2.529140625000000142e+00 -1.126617187500000128e+01 -5.771997070312500089e-01 7.836914062500000000e+01 -2.508544921875000000e+01 -6.927490234375000000e+01 -5.645459999999999923e-01 7.171260000000000412e-01 -8.391899999999999915e-01
3.870000000000000000e+03 1.652563476562500133e+00 -1.046384033203124986e+01 -3.879931640625000067e-01 6.616210937500000000e+01 -3.289794921875000000e+01 -5.004882812500000000e+01 -5.645459999999999923e-01 7.171260000000000412e-01 -8.391899999999999915e-01
3.880000000000000000e+03 -4.646337890625000244e-01 -1.026265869140624964e+01 -5.556445312500000178e-01 5.664062500000000000e+01 -4.272460937500000000e-01 -2.246093750000000000e+01 -5.721749999999999892e-01 6.637230000000000629e-01 -8.468189999999999884e-01
3.890000000000000000e+03 1.645378417968750062e+00 -9.491462402343749716e+00 -2.514770507812499889e-01 6.835937500000000000e+01 -9.033203125000000000e+00 -6.713867187500000000e-01 -5.721749999999999892e-01 6.637230000000000629e-01 -8.468189999999999884e-01
3.900000000000000000e+03 1.453776855468750018e+00 -9.424401855468749645e+00 8.693920898437500488e-01 7.348632812500000000e+01 -1.068115234375000000e+01 1.965332031250000000e+01 -5.874329999999999830e-01 6.789810000000000567e-01 -8.315609999999999946e-01
3.910000000000000000e+03 1.099313964843749991e+00 -7.654482421875000497e+00 8.454418945312500711e-01 8.380126953125000000e+01 -6.103515625000000000e+00 3.967285156250000000e+01 -5.874329999999999830e-01 6.789810000000000567e-01 -8.315609999999999946e-01
3.920000000000000000e+03 9.819580078125000888e-02 -5.510939941406250320e+00 1.125659179687500122e-01 1.152954101562500000e+02 -1.611328125000000000e+01 5.627441406250000000e+01 -6.408360000000000722e-01 6.713520000000000598e-01 -8.391899999999999915e-01
3.930000000000000000e+03 -1.403481445312499964e+00 -2.567460937499999929e+00 -3.784130859375000044e-01 1.685180664062500000e+02 -4.144287109375000000e+01 7.678222656250000000e+01 -6.408360000000000722e-01 6.713520000000000598e-01 -8.391899999999999915e-01
3.940000000000000000e+03 -3.247646484375000142e+00 1.477727050781250107e+00 3.353027343750000222e-01 2.133178710937500000e+02 -5.725097656250000000e+01 9.478759765625000000e+01 -5.569169999999999954e-01 6.026909999999999767e-01 -8.620770000000000932e-01
3.950000000000000000e+03 -4.895419921874999858e+00 4.984035644531250142e+00 1.302890625000000080e+00 2.294311523437500000e+02 -1.232910156250000000e+01 1.083374023437500000e+02 -5.569169999999999954e-01 6.026909999999999767e-01 -8.620770000000000932e-01
3.960000000000000000e+03 -5.999523925781250711e+00 6.988666992187500426e+00 1.439406738281250098e+00 2.353515625000000000e+02 3.692626953125000000e+01 1.145019531250000000e+02 -5.569169999999999954e-01 6.637230000000000629e-01 -9.078510000000000746e-01
3.970000000000000000e+03 -4.557722167968750071e+00 8.763376464843750213e+00 1.547182617187500053e+00 2.144165039062500000e+02 5.572509765625000000e+01 1.179809570312500000e+02 -5.569169999999999954e-01 6.637230000000000629e-01 -9.078510000000000746e-01
3.980000000000000000e+03 -3.288361816406250249e+00 9.869875488281250497e+00 2.433339843750000231e+00 1.724853515625000000e+02 3.558349609375000000e+01 1.186523437500000000e+02 -5.264010000000000078e-01 6.637230000000000629e-01 -9.993990000000000373e-01
3.990000000000000000e+03 -2.974614257812500107e+00 1.152483398437500028e+01 1.460961914062500089e+00 3.320312500000000000e+01 3.033447265625000000e+01 1.076660156250000000e+02 -5.264010000000000078e-01 6.637230000000000629e-01 -9.993990000000000373e-01
4.000000000000000000e+03 -9.364526367187500089e-01 9.886640625000000071e+00 7.664062500000000666e-01 -8.795166015625000000e+01 2.899169921875000000e+01 9.625244140625000000e+01 -5.264010000000000078e-01 6.484650000000000691e-01 -9.993990000000000373e-01
4.010000000000000000e+03 -2.155517578125000153e-02 7.395820312500000604e+00 -1.108894042968750160e+00 -1.400146484375000000e+02 2.172851562500000000e+01 8.416748046875000000e+01 -5.264010000000000078e-01 6.484650000000000691e-01 -9.993990000000000373e-01
4.020000000000000000e+03 2.347119140624999989e-01 5.704936523437500462e+00 -2.644101562499999947e+00 -1.365356445312500000e+02 1.135253906250000000e+01 7.019042968750000000e+01 -4.577400000000000357e-01 7.171260000000000412e-01 -1.037544000000000022e+00
4.030000000000000000e+03 6.706054687500000167e-02 4.679868164062500391e+00 -2.265688476562500053e+00 -1.040039062500000000e+02 -4.821777343750000000e+00 5.078125000000000000e+01 -4.577400000000000357e-01 7.171260000000000412e-01 -1.037544000000000022e+00
4.040000000000000000e+03 1.851350097656250027e+00 4.948110351562500675e+00 1.372346191406250027e+00 -6.872558593750000000e+01 4.174804687500000000e+01 2.508544921875000000e+01 -4.882560000000000233e-01 7.018680000000000474e-01 -9.459960000000000591e-01
4.050000000000000000e+03 2.085822509765625199e+01 3.709885253906250124e+00 3.214116210937500284e+01 -1.483154296875000000e+01 -2.885742187500000000e+02 -1.214599609375000000e+01 -4.882560000000000233e-01 7.018680000000000474e-01 -9.459960000000000591e-01
4.060000000000000000e+03 2.550695800781249911e+00 9.431586914062499716e+00 2.393822021484375284e+01 -1.344604492187500000e+02 -1.295166015625000000e+02 9.338378906250000000e+00 -4.424820000000000420e-01 7.476420000000000288e-01 -9.612540000000000529e-01
4.070000000000000000e+03 -7.244934082031250000e+00 4.059558105468750178e+00 1.051174072265625092e+01 -2.039184570312500000e+02 -1.309814453125000000e+02 -4.577636718750000000e+01 -4.424820000000000420e-01 7.476420000000000288e-01 -9.612540000000000529e-01
4.080000000000000000e+03 -4.088298339843750462e+00 -2.299218750000000089e+00 6.837780761718750711e+00 -2.790527343750000000e+02 -1.085205078125000000e+02 -1.259155273437500000e+02 -4.958850000000000202e-01 7.857870000000000132e-01 -8.925930000000000808e-01
4.090000000000000000e+03 -8.669970703125001066e+00 -2.050615722656250028e+01 1.613524658203125028e+01 -2.487182617187500000e+02 -1.530151367187500000e+02 -2.268066406250000000e+02 -4.958850000000000202e-01 7.857870000000000132e-01 -8.925930000000000808e-01
4.100000000000000000e+03 -5.197192382812500178e+00 -5.371070800781249943e+01 2.220901611328125114e+01 -2.245483398437500000e+02 8.734130859375000000e+01 -3.693237304687500000e+02 -5.035140000000000171e-01 7.629000000000000226e-01 -8.239319999999999977e-01
4.110000000000000000e+03 3.665098388671875540e+01 -5.713319091796875426e+01 2.917133789062499982e+00 -3.208007812500000000e+02 -2.575683593750000000e+01 -2.673950195312500000e+02 -5.035140000000000171e-01 7.629000000000000226e-01 -8.239319999999999977e-01
4.120000000000000000e+03 3.061553466796875256e+01 -2.844085693359375000e+01 -1.844644042968750242e+01 -8.422851562500000000e+00 -1.409912109375000000e+01 -4.174804687500000000e+01 -6.103199999999999736e-01 7.323840000000000350e-01 -7.323840000000000350e-01
4.130000000000000000e+03 1.222657470703125071e+01 -5.465434570312500462e+00 -6.485712890624999893e+00 2.974853515625000000e+02 1.063842773437500000e+02 -2.362060546875000000e+01 -6.103199999999999736e-01 7.323840000000000350e-01 -7.323840000000000350e-01
4.140000000000000000e+03 4.591252441406250107e+00 -5.513334960937500639e+00 7.968229980468750639e+00 3.535156250000000000e+02 1.257324218750000000e+02 -1.306152343750000000e+01 -6.484650000000000691e-01 6.942390000000000505e-01 -7.247550000000000381e-01
4.150000000000000000e+03 -6.490502929687500533e-01 -1.264570312500000071e+01 2.729603759765625171e+01 2.716064453125000000e+01 9.326171875000000000e+01 -2.893066406250000000e+01 -6.484650000000000691e-01 6.942390000000000505e-01 -7.247550000000000381e-01
4.160000000000000000e+03 7.616162109375000933e-01 -2.516926025390625199e+01 8.040080566406249574e+00 -2.145996093750000000e+02 5.718994140625000000e+01 -4.064941406250000000e+01 -6.332070000000000753e-01 6.942390000000000505e-01 -8.163030000000000008e-01
4.170000000000000000e+03 7.220983886718750355e+00 -3.501039550781250398e+01 -4.560117187500000391e+00 -1.905517578125000000e+02 1.177368164062500000e+02 -1.617431640625000000e+01 -6.332070000000000753e-01 6.942390000000000505e-01 -8.163030000000000008e-01
4.180000000000000000e+03 2.253713378906250231e+00 -2.498244873046875014e+01 -1.298819091796875114e+01 -1.332397460937500000e+02 6.939697265625000000e+01 2.716064453125000000e+01 -6.179490000000000816e-01 6.637230000000000629e-01 -8.010450000000000070e-01
4.190000000000000000e+03 -6.600673828125000142e+00 -1.403002441406250078e+01 -1.205173828125000135e+01 -4.010009765625000000e+01 3.399658203125000000e+01 3.576660156250000000e+01 -6.179490000000000816e-01 6.637230000000000629e-01 -8.010450000000000070e-01
4.200000000000000000e+03 -3.681145019531250284e+00 -1.199904785156250142e+01 -9.307045898437500853e+00 1.064453125000000000e+02 6.713867187500000000e+00 2.337646484375000000e+01 -6.179490000000000816e-01 6.637230000000000629e-01 -8.163030000000000008e-01
4.210000000000000000e+03 -6.629414062500000426e+00 -1.066502197265625007e+01 1.293310546875000133e+00 1.865234375000000000e+02 1.605224609375000000e+01 3.356933593750000000e+01 -6.179490000000000816e-01 6.637230000000000629e-01 -8.163030000000000008e-01
4.220000000000000000e+03 -9.412426757812500933e-01 -1.311033691406250057e+01 1.238225097656250107e+00 1.751708984375000000e+02 1.008300781250000000e+02 4.791259765625000000e+01 -6.179490000000000816e-01 6.484650000000000691e-01 -8.315609999999999946e-01
4.230000000000000000e+03 3.647614746093750249e+00 -1.509341308593750064e+01 2.533451660156250185e+01 9.027099609375000000e+01 9.814453125000000000e+01 8.178710937500000000e+01 -6.179490000000000816e-01 6.484650000000000691e-01 -8.315609999999999946e-01
4.240000000000000000e+03 -5.867797851562500666e-01 -1.420246582031250071e+01 1.027463378906250036e+01 -1.866455078125000000e+02 -3.369140625000000000e+01 8.502197265625000000e+01 -5.798039999999999861e-01 6.408360000000000722e-01 -8.697060000000000901e-01
4.250000000000000000e+03 -5.269042968750000527e-02 -1.529459472656250085e+01 -3.233276367187500333e-01 -1.447753906250000000e+02 4.315185546875000000e+01 7.708740234375000000e+01 -5.798039999999999861e-01 6.408360000000000722e-01 -8.697060000000000901e-01
4.260000000000000000e+03 3.903881835937499933e-01 -1.434856201171875156e+01 -4.358935546875000178e+00 -8.203125000000000000e+01 5.004882812500000000e+01 6.176757812500000000e+01 -5.492879999999999985e-01 7.018680000000000474e-01 -8.849640000000000839e-01
4.270000000000000000e+03 8.238867187500000799e-01 -1.259301269531250078e+01 -6.136040039062500284e+00 -1.647949218750000000e+00 4.364013671875000000e+01 4.772949218750000000e+01 -5.492879999999999985e-01 7.018680000000000474e-01 -8.849640000000000839e-01
4.280000000000000000e+03 1.166374511718750062e+00 -1.047821044921875000e+01 -4.916975097656250071e+00 6.750488281250000000e+01 3.704833984375000000e+01 3.833007812500000000e+01 -5.035140000000000171e-01 7.171260000000000412e-01 -8.239319999999999977e-01
4.290000000000000000e+03 8.286767578125000533e-01 -8.186176757812500426e+00 -3.424877929687500266e+00 1.314697265625000000e+02 3.546142578125000000e+01 2.813720703125000000e+01 -5.035140000000000171e-01 7.171260000000000412e-01 -8.239319999999999977e-01
4.300000000000000000e+03 9.484277343750000533e-01 -4.481081542968750497e+00 -1.846560058593750053e+00 1.937255859375000000e+02 4.083251953125000000e+01 1.959228515625000000e+01 -5.492879999999999985e-01 7.171260000000000412e-01 -8.391899999999999915e-01
4.310000000000000000e+03 3.496728515624999978e-01 -1.348395996093750160e+00 -5.053491210937500755e-01 2.399291992187500000e+02 4.772949218750000000e+01 1.000976562500000000e+01 -5.492879999999999985e-01 7.171260000000000412e-01 -8.391899999999999915e-01
4.320000000000000000e+03 -2.306403808593750160e+00 3.079995117187499964e+00 9.390871582031250497e+00 2.693481445312500000e+02 1.105957031250000000e+02 -6.774902343750000000e+00 -5.035140000000000171e-01 7.171260000000000412e-01 -9.154800000000000715e-01
4.330000000000000000e+03 -6.274951171875000622e-01 5.005590820312500355e+00 5.405559082031250462e+00 2.154541015625000000e+02 3.094482421875000000e+01 -3.369140625000000000e+01 -5.035140000000000171e-01 7.171260000000000412e-01 -9.154800000000000715e-01
4.340000000000000000e+03 -1.077758789062500000e+00 7.570656738281249964e+00 1.827399902343750160e+00 1.268310546875000000e+02 2.697753906250000000e+01 -6.079101562500000000e+01 -4.729980000000000295e-01 6.560940000000000660e-01 -1.037544000000000022e+00
4.350000000000000000e+03 -9.412426757812500933e-01 1.018362304687500064e+01 1.413061523437500189e-01 5.987548828125000000e+01 7.141113281250000000e+00 -8.581542968750000000e+01 -4.729980000000000295e-01 6.560940000000000660e-01 -1.037544000000000022e+00
4.360000000000000000e+03 1.326840820312500169e+00 1.077998291015625121e+01 -5.724096679687500355e-01 -8.178710937500000000e+00 -1.922607421875000000e+01 -1.067504882812500000e+02 -5.111430000000000140e-01 6.332070000000000753e-01 -1.014657000000000142e+00
4.370000000000000000e+03 -2.323168945312500122e-01 1.215711914062500121e+01 -7.113208007812500400e-01 -8.923339843750000000e+01 -5.505371093750000000e+01 -1.239013671875000000e+02 -5.111430000000000140e-01 6.332070000000000753e-01 -1.014657000000000142e+00
4.380000000000000000e+03 -1.259780273437500098e+00 1.090212890625000064e+01 -8.334667968750000266e-01 -1.809082031250000000e+02 -8.325195312500000000e+01 -1.295776367187500000e+02 -5.340300000000000047e-01 6.408360000000000722e-01 -1.007028000000000034e+00
4.390000000000000000e+03 -2.428549804687500036e+00 7.220983886718750355e+00 -2.747087402343749929e+00 -2.158203125000000000e+02 -9.112548828125000000e+01 -1.170043945312500000e+02 -5.340300000000000047e-01 6.408360000000000722e-01 -1.007028000000000034e+00
4.400000000000000000e+03 -5.110971679687500213e+00 4.914580078125000639e+00 -4.145778808593750142e+00 -1.685791015625000000e+02 -3.942871093750000000e+01 -1.057739257812500000e+02 -5.798039999999999861e-01 6.255780000000000785e-01 -9.612540000000000529e-01
4.410000000000000000e+03 -3.460803222656250178e+00 3.829636230468750124e+00 -4.277504882812499964e+00 -1.149291992187500000e+02 -1.220703125000000000e+01 -8.496093750000000000e+01 -5.798039999999999861e-01 6.255780000000000785e-01 -9.612540000000000529e-01
4.420000000000000000e+03 -6.342011718750000249e+00 2.368674316406250036e+00 -4.239184570312500289e-01 -4.510498046875000000e+01 3.112792968750000000e+01 -6.103515625000000000e+01 -5.950619999999999798e-01 6.255780000000000785e-01 -9.002220000000000777e-01
4.430000000000000000e+03 -1.104104003906250142e+01 3.506308593750000036e+00 1.738305175781250256e+01 2.173461914062500000e+02 2.097778320312500000e+02 -4.058837890625000000e+01 -5.950619999999999798e-01 6.255780000000000785e-01 -9.002220000000000777e-01
4.440000000000000000e+03 -1.137634277343750000e+00 1.374022705078125028e+01 2.975332763671875114e+01 -2.288818359375000000e+01 5.853271484375000000e+01 -5.255126953125000000e+01 -5.874329999999999830e-01 5.721749999999999892e-01 -9.231090000000000684e-01
4.450000000000000000e+03 1.679148193359375085e+01 6.286926269531250000e+00 1.310554687499999993e+01 -3.926391601562500000e+02 8.270263671875000000e+01 -5.310058593750000000e+00 -5.874329999999999830e-01 5.721749999999999892e-01 -9.231090000000000684e-01
4.460000000000000000e+03 1.182900146484375092e+01 -4.488266601562500568e+00 5.005590820312500355e+00 -3.936157226562500000e+02 3.234863281250000000e+00 8.148193359375000000e+01 -5.798039999999999861e-01 5.950619999999999798e-01 -9.612540000000000529e-01
4.470000000000000000e+03 1.494252685546875092e+01 -1.569935302734375071e+01 -2.107617187500000211e-01 -2.741088867187500000e+02 1.404418945312500000e+02 1.971435546875000000e+02 -5.798039999999999861e-01 5.950619999999999798e-01 -9.612540000000000529e-01
4.480000000000000000e+03 3.129093017578125213e+01 -4.803211669921875426e+01 2.213477050781250099e+01 -3.005371093750000000e+02 8.374023437500000000e+01 3.537597656250000000e+02 -5.950619999999999798e-01 6.713520000000000598e-01 -8.849640000000000839e-01
4.490000000000000000e+03 1.359892089843750007e+01 -4.858776123046875028e+01 -2.337539062500000320e+00 -2.446289062500000000e+02 -8.581542968750000000e+01 3.566284179687500000e+02 -5.950619999999999798e-01 6.713520000000000598e-01 -8.849640000000000839e-01
4.500000000000000000e+03 -2.220422607421875227e+01 -5.090374511718750483e+01 7.029382324218750533e+00 -4.202270507812500000e+02 -5.438232421875000000e+01 2.078247070312500000e+02 -4.806270000000000264e-01 7.705290000000000195e-01 -8.620770000000000932e-01
4.510000000000000000e+03 -3.422961914062500455e+01 -1.547182617187500142e+01 -2.200304443359375028e+01 -1.845703125000000000e+02 -1.959228515625000000e+01 8.782958984375000000e+01 -4.806270000000000264e-01 7.705290000000000195e-01 -8.620770000000000932e-01
4.520000000000000000e+03 -2.014450927734375085e+01 -5.261857910156249929e+00 -5.939648437500000711e+00 1.304931640625000000e+02 -4.461669921875000000e+01 -6.774902343750000000e+01 -4.348530000000000451e-01 8.468189999999999884e-01 -7.400130000000000319e-01
4.530000000000000000e+03 -8.677155761718751137e+00 -9.692644042968749929e+00 7.927514648437500311e-01 2.403564453125000000e+02 5.456542968750000000e+01 -7.183837890625000000e+01 -4.348530000000000451e-01 8.468189999999999884e-01 -7.400130000000000319e-01
4.540000000000000000e+03 2.969824218750000355e+00 -2.412024169921875227e+01 1.052371582031249986e+01 2.510986328125000000e+02 1.561279296875000000e+02 -3.375244140625000000e+01 -4.348530000000000451e-01 8.468189999999999884e-01 -7.094970000000000443e-01
4.550000000000000000e+03 1.650407958984375156e+01 -3.354703857421875313e+01 1.804647216796875142e+01 8.544921875000000000e+01 -9.277343750000000000e+01 7.751464843750000000e+00 -4.348530000000000451e-01 8.468189999999999884e-01 -7.094970000000000443e-01
4.560000000000000000e+03 6.090534667968750426e+00 -2.534888671875000199e+01 3.068020019531250142e+00 -5.084228515625000000e+01 -9.197998046875000000e+01 -9.277343750000000000e+00 -4.272240000000000482e-01 8.239319999999999977e-01 -8.391899999999999915e-01
4.570000000000000000e+03 7.268884277343750533e+00 -1.567540283203125107e+01 -9.163344726562501208e+00 -6.689453125000000000e+01 -6.390380859375000000e+01 -3.308105468750000000e+01 -4.272240000000000482e-01 8.239319999999999977e-01 -8.391899999999999915e-01
4.580000000000000000e+03 9.103469238281251208e+00 -1.535926025390625149e+01 -1.017164794921874993e+01 -1.422119140625000000e+01 -8.056640625000000000e+00 -7.025146484375000000e+01 -4.348530000000000451e-01 8.163030000000000008e-01 -8.010450000000000070e-01
4.590000000000000000e+03 8.684340820312501208e+00 -1.476290039062500092e+01 -2.512375488281250124e+00 8.709716796875000000e+01 2.124023437500000000e+01 -8.270263671875000000e+01 -4.348530000000000451e-01 8.163030000000000008e-01 -8.010450000000000070e-01
4.600000000000000000e+03 1.079674804687500078e+01 -1.461201416015625121e+01 4.143383789062500266e-01 1.099853515625000000e+02 3.271484375000000000e+01 -9.094238281250000000e+01 -4.653690000000000326e-01 7.552710000000000257e-01 -8.315609999999999946e-01
4.610000000000000000e+03 4.694238281250000533e+00 -1.624302246093749957e+01 4.205654296875000142e+00 8.593750000000000000e+01 5.187988281250000000e+00 -8.947753906250000000e+01 -4.653690000000000326e-01 7.552710000000000257e-01 -8.315609999999999946e-01
4.620000000000000000e+03 4.488266601562500568e+00 -1.787163574218750028e+01 4.948110351562500675e+00 3.753662109375000000e+01 -1.782226562500000000e+01 -9.106445312500000000e+01 -4.577400000000000357e-01 7.323840000000000350e-01 -8.391899999999999915e-01
4.630000000000000000e+03 2.533930664062500338e+00 -1.738784179687500142e+01 2.670446777343750355e+00 1.678466796875000000e+01 -2.789306640625000000e+01 -8.013916015625000000e+01 -4.577400000000000357e-01 7.323840000000000350e-01 -8.391899999999999915e-01
4.640000000000000000e+03 3.240461425781250071e+00 -1.500000732421875149e+01 -9.196874999999999911e-01 2.319335937500000000e+01 -4.333496093750000000e+01 -5.847167968750000000e+01 -4.958850000000000202e-01 7.857870000000000132e-01 -8.468189999999999884e-01
4.650000000000000000e+03 1.082548828124999973e+00 -1.465512451171874986e+01 5.460644531250000711e-01 3.173828125000000000e+01 -4.724121093750000000e+01 -2.960205078125000000e+01 -4.958850000000000202e-01 7.857870000000000132e-01 -8.468189999999999884e-01
4.660000000000000000e+03 -7.328759765625000311e-01 -1.284927978515625036e+01 -6.035449218750000844e-01 2.740478515625000000e+01 6.896972656250000000e+00 -3.662109375000000000e-01 -4.958850000000000202e-01 6.942390000000000505e-01 -8.468189999999999884e-01
4.670000000000000000e+03 2.155517578125000222e-01 -1.239662109375000121e+01 -1.537602539062500107e+00 4.772949218750000000e+01 1.434326171875000000e+01 2.941894531250000000e+01 -4.958850000000000202e-01 6.942390000000000505e-01 -8.468189999999999884e-01
4.680000000000000000e+03 2.730322265625000355e-01 -1.060514648437500007e+01 -1.865720214843750169e+00 9.759521484375000000e+01 7.385253906250000000e+00 4.864501953125000000e+01 -5.569169999999999954e-01 7.705290000000000195e-01 -8.925930000000000808e-01
4.690000000000000000e+03 -3.329077148437500355e-01 -7.144343261718750782e+00 -8.430468750000000844e-01 1.366577148437500000e+02 1.074218750000000000e+01 6.805419921875000000e+01 -5.569169999999999954e-01 7.705290000000000195e-01 -8.925930000000000808e-01
4.700000000000000000e+03 -1.904040527343750178e+00 -2.133962402343750231e+00 -1.484912109375000178e+00 1.731567382812500000e+02 -3.710937500000000000e+01 8.721923828125000000e+01 -4.806270000000000264e-01 7.247550000000000381e-01 -8.773350000000000870e-01
4.710000000000000000e+03 -5.582790527343750142e+00 2.150727539062500249e+00 -1.293310546875000022e-01 1.835937500000000000e+02 -3.320312500000000000e+01 1.010742187500000000e+02 -4.806270000000000264e-01 7.247550000000000381e-01 -8.773350000000000870e-01
4.720000000000000000e+03 -4.162543945312500604e+00 5.599555664062500604e+00 -2.275268554687500111e-01 1.927490234375000000e+02 5.187988281250000000e+00 1.094970703125000000e+02 -4.882560000000000233e-01 7.323840000000000350e-01 -9.154800000000000715e-01
4.730000000000000000e+03 -4.136198730468750639e+00 7.534731445312500497e+00 -4.047583007812500244e-01 2.071533203125000000e+02 4.620361328125000000e+01 1.223144531250000000e+02 -4.882560000000000233e-01 7.323840000000000350e-01 -9.154800000000000715e-01
4.740000000000000000e+03 -3.503913574218750160e+00 9.503437500000000426e+00 8.047265625000000755e-01 1.909179687500000000e+02 4.766845703125000000e+01 1.322631835937500000e+02 -4.729980000000000295e-01 7.171260000000000412e-01 -9.765120000000000466e-01
4.750000000000000000e+03 -3.422482910156250391e+00 1.066023193359375121e+01 1.954335937500000009e+00 1.224365234375000000e+02 6.213378906250000000e+01 1.381225585937500000e+02 -4.729980000000000295e-01 7.171260000000000412e-01 -9.765120000000000466e-01
4.760000000000000000e+03 -2.747087402343749929e+00 1.033211425781250092e+01 2.050136718750000142e+00 4.968261718750000000e+01 5.078125000000000000e+01 1.326904296875000000e+02 -4.806270000000000264e-01 6.942390000000000505e-01 -1.014657000000000142e+00
4.770000000000000000e+03 -1.319655761718750098e+00 1.011656250000000057e+01 1.587897949218750160e+00 -1.586914062500000000e+00 4.693603515625000000e+01 1.210327148437500000e+02 -4.806270000000000264e-01 6.942390000000000505e-01 -1.014657000000000142e+00
4.780000000000000000e+03 3.736230468750000311e-01 8.950187988281250284e+00 7.783813476562500000e-01 -4.663085937500000000e+01 4.449462890625000000e+01 1.005859375000000000e+02 -3.661920000000000175e-01 7.018680000000000474e-01 -1.052802000000000016e+00
4.790000000000000000e+03 2.189047851562500036e+00 6.785090332031250782e+00 1.317260742187500167e-01 -8.673095703125000000e+01 4.693603515625000000e+01 8.593750000000000000e+01 -3.661920000000000175e-01 7.018680000000000474e-01 -1.052802000000000016e+00
4.800000000000000000e+03 1.913620605468750124e+00 5.235512695312499964e+00 -9.532177734375000266e-01 -9.918212890625000000e+01 1.586914062500000000e+01 6.750488281250000000e+01 -3.967080000000000051e-01 7.476420000000000288e-01 -1.022286000000000028e+00
4.810000000000000000e+03 1.346000976562500062e+00 4.440366210937500391e+00 -5.053491210937500755e-01 -8.471679687500000000e+01 -1.251220703125000000e+01 4.803466796875000000e+01 -3.967080000000000051e-01 7.476420000000000288e-01 -1.022286000000000028e+00
4.820000000000000000e+03 1.530417480468750036e+00 4.085903320312500142e+00 1.808239746093750044e+00 -6.970214843750000000e+01 2.136230468750000000e+00 2.429199218750000000e+01 -2.899019999999999930e-01 8.239319999999999977e-01 -1.022286000000000028e+00
4.830000000000000000e+03 1.423599609374999986e+01 5.762416992187500142e+00 5.618715820312500497e+00 -1.745605468750000000e+01 -2.965698242187500000e+02 -1.013183593750000000e+01 -2.899019999999999930e-01 8.239319999999999977e-01 -1.022286000000000028e+00
4.840000000000000000e+03 9.718989257812500782e+00 3.566184082031250036e+00 2.580633544921875000e+01 -3.869628906250000000e+01 -1.672973632812500000e+02 -6.835937500000000000e+00 -3.356760000000000299e-01 8.086740000000000039e-01 -9.917700000000000404e-01
4.850000000000000000e+03 -1.938289306640625043e+01 4.564907226562500142e+00 1.885359375000000171e+01 -2.077636718750000000e+02 -1.539306640625000000e+02 -5.822753906250000000e+01 -3.356760000000000299e-01 8.086740000000000039e-01 -9.917700000000000404e-01
4.860000000000000000e+03 -1.539758056640625128e+01 -1.403481445312499964e+00 7.798183593750000142e+00 -3.051757812500000000e+02 -1.177978515625000000e+02 -1.784057617187500000e+02 -3.661920000000000175e-01 8.086740000000000039e-01 -9.612540000000000529e-01
4.870000000000000000e+03 -1.467667968750000007e+01 -1.419528076171875064e+01 5.819897460937500711e+00 -2.896728515625000000e+02 -1.304321289062500000e+02 -2.768554687500000000e+02 -3.661920000000000175e-01 8.086740000000000039e-01 -9.612540000000000529e-01
4.880000000000000000e+03 9.829160156250001279e+00 -3.324766113281250313e+01 -3.650009765625000124e+00 -2.985229492187500000e+02 -7.867431640625000000e+01 -3.704833984375000000e+02 -4.348530000000000451e-01 8.010450000000000070e-01 -8.315609999999999946e-01
4.890000000000000000e+03 4.794829101562500639e+00 -3.449067626953124943e+01 -7.151528320312499964e+00 -1.414794921875000000e+02 -6.640625000000000000e+01 -2.659301757812500000e+02 -4.348530000000000451e-01 8.010450000000000070e-01 -8.315609999999999946e-01
4.900000000000000000e+03 4.014292236328125085e+01 -5.603148193359375284e+01 3.889511718750000124e+00 -9.631347656250000000e+01 -6.994628906250000000e+01 -5.035400390625000000e+01 -5.340300000000000047e-01 7.781580000000000163e-01 -7.934160000000000101e-01
4.910000000000000000e+03 1.836500976562500043e+01 -1.790037597656250057e+01 -6.528823242187500320e+00 1.681518554687500000e+02 -1.715087890625000000e+01 1.599121093750000000e+01 -5.340300000000000047e-01 7.781580000000000163e-01 -7.934160000000000101e-01
4.920000000000000000e+03 7.580236816406250355e+00 -6.260581054687500036e+00 1.722019042968750080e+00 3.349609375000000000e+02 3.930664062500000000e+01 2.752685546875000000e+01 -5.645459999999999923e-01 7.629000000000000226e-01 -7.629000000000000226e-01
4.930000000000000000e+03 6.957531738281250711e+00 -5.815107421875000071e+00 1.041354492187500114e+01 2.848510742187500000e+02 -1.519775390625000000e+02 1.831054687500000000e+00 -5.645459999999999923e-01 7.629000000000000226e-01 -7.629000000000000226e-01
4.940000000000000000e+03 -8.861572265625000000e+00 -1.250679199218749993e+01 1.872905273437499929e+01 -1.096801757812500000e+02 -2.264404296875000000e+01 -2.648925781250000000e+01 -5.950619999999999798e-01 7.781580000000000163e-01 -8.239319999999999977e-01
4.950000000000000000e+03 -6.492897949218749964e+00 -1.846081054687500256e+01 4.423601074218749929e+00 -2.208251953125000000e+02 -7.952880859375000000e+01 -6.719970703125000000e+01 -5.950619999999999798e-01 7.781580000000000163e-01 -8.239319999999999977e-01
4.960000000000000000e+03 3.391347656250000231e+00 -2.570813964843750199e+01 -3.563789062500000160e+00 -1.986083984375000000e+02 3.881835937500000000e+01 -5.328369140625000000e+01 -5.874329999999999830e-01 7.552710000000000257e-01 -8.315609999999999946e-01
4.970000000000000000e+03 6.298901367187500711e+00 -3.327879638671875284e+01 -8.631650390625001279e+00 -4.626464843750000000e+01 2.923583984375000000e+01 2.014160156250000000e+00 -5.874329999999999830e-01 7.552710000000000257e-01 -8.315609999999999946e-01
4.980000000000000000e+03 5.853427734374999858e+00 -2.123903320312500043e+01 -9.479487304687500782e+00 6.884765625000000000e+01 8.544921875000000000e-01 3.912353515625000000e+01 -5.416590000000000016e-01 7.857870000000000132e-01 -7.552710000000000257e-01
4.990000000000000000e+03 4.969665527343750000e+00 -1.597957031249999993e+01 -3.250041503906250018e+00 1.182250976562500000e+02 -1.678466796875000000e+01 4.589843750000000000e+01 -5.416590000000000016e-01 7.857870000000000132e-01 -7.552710000000000257e-01
5.000000000000000000e+03 2.050136718750000142e+00 -1.417851562500000107e+01 2.414179687500000338e+00 1.099853515625000000e+02 1.831054687500000000e-01 4.235839843750000000e+01 -5.416590000000000016e-01 7.705290000000000195e-01 -8.010450000000000070e-01
5.010000000000000000e+03 7.209008789062500533e+00 -1.726809082031250142e+01 5.554050292968749858e+00 6.164550781250000000e+01 -2.563476562500000000e+00 3.186035156250000000e+01 -5.416590000000000016e-01 7.705290000000000195e-01 -8.010450000000000070e-01
5.020000000000000000e+03 4.909790039062500000e+00 -1.716031494140625213e+01 4.505031738281250142e+00 -2.740478515625000000e+01 6.835937500000000000e+00 3.167724609375000000e+01 -5.492879999999999985e-01 7.476420000000000288e-01 -7.934160000000000101e-01
5.030000000000000000e+03 5.882167968750000142e+00 -1.776385986328125099e+01 2.299218749999999978e-01 -7.696533203125000000e+01 1.611328125000000000e+01 4.089355468750000000e+01 -5.492879999999999985e-01 7.476420000000000288e-01 -7.934160000000000101e-01
5.040000000000000000e+03 4.998405761718750284e+00 -1.523471923828125085e+01 -5.800737304687499929e+00 -1.782226562500000000e+01 3.125000000000000000e+01 3.680419921875000000e+01 -5.416590000000000016e-01 7.705290000000000195e-01 -7.857870000000000132e-01
5.050000000000000000e+03 2.744692382812500053e+00 -1.235351074218750078e+01 -5.633085937500000639e+00 9.497070312500000000e+01 4.028320312500000000e+01 2.319335937500000000e+01 -5.416590000000000016e-01 7.705290000000000195e-01 -7.857870000000000132e-01
5.060000000000000000e+03 1.159189453124999991e+00 -1.035845947265625000e+01 -1.405876464843750062e+00 1.492919921875000000e+02 5.389404296875000000e+01 1.098632812500000000e+01 -5.416590000000000016e-01 7.705290000000000195e-01 -8.315609999999999946e-01
5.070000000000000000e+03 -1.075363769531250124e+00 -9.716594238281251350e+00 1.355581054687500009e+00 1.373901367187500000e+02 5.377197265625000000e+01 5.126953125000000000e+00 -5.416590000000000016e-01 7.705290000000000195e-01 -8.315609999999999946e-01
5.080000000000000000e+03 -4.596042480468749858e+00 -8.880732421875000782e+00 2.205812988281250053e+00 9.564208984375000000e+01 4.565429687500000000e+01 -4.028320312500000000e+00 -5.416590000000000016e-01 7.552710000000000257e-01 -8.773350000000000870e-01
5.090000000000000000e+03 -5.079836425781250497e+00 -8.018525390625001137e+00 1.116079101562500009e+00 7.550048828125000000e+01 3.430175781250000000e+01 -1.824951171875000000e+01 -5.416590000000000016e-01 7.552710000000000257e-01 -8.773350000000000870e-01
5.100000000000000000e+03 -5.793552246093749858e+00 -6.080954589843750036e+00 3.137475585937500311e-01 9.979248046875000000e+01 1.599121093750000000e+01 -3.161621093750000000e+01 -5.569169999999999954e-01 7.552710000000000257e-01 -9.078510000000000746e-01
5.110000000000000000e+03 -5.216352539062500071e+00 -3.671564941406250338e+00 4.790039062500000000e-01 1.470336914062500000e+02 1.641845703125000000e+01 -5.944824218750000000e+01 -5.569169999999999954e-01 7.552710000000000257e-01 -9.078510000000000746e-01
5.120000000000000000e+03 -3.585344238281250373e+00 9.340576171875000777e-02 5.087021484375000568e+00 1.843261718750000000e+02 5.255126953125000000e+01 -7.666015625000000000e+01 -5.874329999999999830e-01 7.400130000000000319e-01 -8.925930000000000808e-01
5.130000000000000000e+03 -4.598437499999999956e-01 4.366120605468750249e+00 3.733835449218750213e+00 1.760253906250000000e+02 9.033203125000000000e+00 -9.472656250000000000e+01 -5.874329999999999830e-01 7.400130000000000319e-01 -8.925930000000000808e-01
5.140000000000000000e+03 -5.891748046875000533e-01 6.356381835937500391e+00 4.026027832031250142e+00 1.122436523437500000e+02 1.251220703125000000e+01 -1.091308593750000000e+02 -5.340300000000000047e-01 7.171260000000000412e-01 -9.917700000000000404e-01
5.150000000000000000e+03 -3.058439941406250195e+00 9.951306152343750711e+00 2.136357421875000107e+00 4.071044921875000000e+01 1.159667968750000000e+00 -1.264038085937500000e+02 -5.340300000000000047e-01 7.171260000000000412e-01 -9.917700000000000404e-01
5.160000000000000000e+03 1.214274902343750018e+00 1.011895751953125000e+01 2.045346679687499947e+00 -5.334472656250000000e+01 -1.660156250000000000e+01 -1.326904296875000000e+02 -5.950619999999999798e-01 6.408360000000000722e-01 -9.917700000000000404e-01
5.170000000000000000e+03 4.023632812500000377e-01 1.177391601562499979e+01 1.963916015625000178e-01 -1.680908203125000000e+02 -3.436279296875000000e+01 -1.302490234375000000e+02 -5.950619999999999798e-01 6.408360000000000722e-01 -9.917700000000000404e-01
5.180000000000000000e+03 1.233435058593750133e+00 8.931027832031251279e+00 -2.160307617187500195e+00 -1.831665039062500000e+02 -9.545898437500000000e+01 -1.203002929687500000e+02 -6.179490000000000816e-01 6.026909999999999767e-01 -1.014657000000000142e+00
5.190000000000000000e+03 -2.107617187500000266e+00 5.989943847656250320e+00 -6.181545410156250142e+00 -1.370849609375000000e+02 -2.319335937500000000e+01 -1.042480468750000000e+02 -6.179490000000000816e-01 6.026909999999999767e-01 -1.014657000000000142e+00
5.200000000000000000e+03 -1.386716308593750169e+00 4.308640136718750568e+00 -5.218747558593750391e+00 -8.898925781250000000e+01 -6.652832031250000000e+00 -8.428955078125000000e+01 -6.866100000000000536e-01 6.255780000000000785e-01 -9.612540000000000529e-01
5.210000000000000000e+03 -7.520361328125000355e-01 3.415297851562500320e+00 -3.628454589843750355e+00 -4.663085937500000000e+01 2.502441406250000000e+00 -6.591796875000000000e+01 -6.866100000000000536e-01 6.255780000000000785e-01 -9.612540000000000529e-01
5.220000000000000000e+03 -3.281176757812500067e-01 3.314707031250000213e+00 -1.664538574218750178e+00 -1.373291015625000000e+01 9.155273437500000000e+00 -4.925537109375000000e+01 -7.094970000000000443e-01 6.637230000000000629e-01 -9.078510000000000746e-01
5.230000000000000000e+03 -8.143066406250000222e-01 2.847678222656250036e+00 6.466552734375000111e-02 -1.037597656250000000e+01 5.035400390625000000e+01 -3.411865234375000000e+01 -7.094970000000000443e-01 6.637230000000000629e-01 -9.078510000000000746e-01
5.240000000000000000e+03 -1.235830078125000009e+00 1.482517089843750080e+00 1.305285644531249956e+00 -2.307128906250000000e+01 4.913330078125000000e+01 -2.050781250000000000e+01 -6.713520000000000598e-01 6.408360000000000722e-01 -9.154800000000000715e-01
5.250000000000000000e+03 -7.335944824218750604e+00 -1.288520507812500160e+00 1.621907226562500171e+01 -5.688476562500000000e+01 6.683349609375000000e+01 -1.086425781250000000e+01 -6.713520000000000598e-01 6.408360000000000722e-01 -9.154800000000000715e-01
5.260000000000000000e+03 -2.806004882812500156e+01 5.877377929687500391e+00 2.463996093749999972e+01 -8.074951171875000000e+01 1.269531250000000000e+02 1.806640625000000000e+01 -6.560940000000000660e-01 6.103199999999999736e-01 -9.612540000000000529e-01
5.270000000000000000e+03 7.309599609375000639e+00 7.031777343749999964e+00 2.384720947265624957e+01 -7.147216796875000000e+01 2.011718750000000000e+02 -2.209472656250000000e+01 -6.560940000000000660e-01 6.103199999999999736e-01 -9.612540000000000529e-01
5.280000000000000000e+03 2.311912353515625185e+01 -9.388476562500001066e+00 3.088377685546875284e+01 -4.459228515625000000e+02 1.924438476562500000e+02 1.038208007812500000e+02 -7.323840000000000350e-01 5.798039999999999861e-01 -9.459960000000000591e-01
5.290000000000000000e+03 6.375541992187500284e+01 -4.672922607421875085e+01 -9.541757812500000213e+00 -4.901123046875000000e+02 1.867065429687500000e+02 3.137207031250000000e+02 -7.323840000000000350e-01 5.798039999999999861e-01 -9.459960000000000591e-01
5.300000000000000000e+03 1.787403076171874972e+01 -3.765689208984375114e+01 -1.421683593750000085e+01 -2.077026367187500000e+02 6.463623046875000000e+01 3.524169921875000000e+02 -6.026909999999999767e-01 7.094970000000000443e-01 -9.078510000000000746e-01
5.310000000000000000e+03 -1.257385253906250000e+01 -3.924479003906250085e+01 -2.912343750000000231e+00 -8.740234375000000000e+01 8.398437500000000000e+01 2.084350585937500000e+02 -6.026909999999999767e-01 7.094970000000000443e-01 -9.078510000000000746e-01
5.320000000000000000e+03 -2.551653808593750128e+01 -2.761218017578125128e+01 -2.284848632812499947e+00 -7.287597656250000000e+01 5.572509765625000000e+01 2.337646484375000000e+01 -5.264010000000000078e-01 8.010450000000000070e-01 -8.620770000000000932e-01
5.330000000000000000e+03 -2.164139648437500085e+01 -1.510059814453125071e+01 -5.190007324218750107e+00 3.173828125000000000e+01 2.355957031250000000e+01 -9.942626953125000000e+01 -5.264010000000000078e-01 8.010450000000000070e-01 -8.620770000000000932e-01
5.340000000000000000e+03 -6.495292968750000284e+00 -2.711162109375000018e+00 -4.284689941406250036e+00 1.650390625000000000e+02 4.180908203125000000e+01 -8.862304687500000000e+01 -5.569169999999999954e-01 8.010450000000000070e-01 -8.468189999999999884e-01
5.350000000000000000e+03 -4.308640136718750568e+00 -1.047581542968750057e+01 4.766088867187500355e+00 2.588500976562500000e+02 9.649658203125000000e+01 -6.506347656250000000e+01 -5.569169999999999954e-01 8.010450000000000070e-01 -8.468189999999999884e-01
5.360000000000000000e+03 6.126459960937499893e+00 -2.442201416015625171e+01 1.041354492187500114e+01 1.676635742187500000e+02 2.404785156250000000e+02 -1.586914062500000000e+01 -5.340300000000000047e-01 7.629000000000000226e-01 -8.697060000000000901e-01
5.370000000000000000e+03 1.047821044921875000e+01 -2.755948974609375313e+01 6.215075683593750178e+00 2.551269531250000000e+01 8.020019531250000000e+01 1.605224609375000000e+01 -5.340300000000000047e-01 7.629000000000000226e-01 -8.697060000000000901e-01
5.380000000000000000e+03 5.467829589843749893e+00 -2.936054443359375199e+01 7.779023437500000249e+00 -6.762695312500000000e+01 1.654052734375000000e+01 -1.342773437500000000e+00 -5.187720000000000109e-01 7.781580000000000163e-01 -9.459960000000000591e-01
5.390000000000000000e+03 6.076164550781250284e+00 -1.698308349609375156e+01 -2.258503417968749982e+00 -1.078491210937500000e+02 5.108642578125000000e+01 -3.149414062500000000e+01 -5.187720000000000109e-01 7.781580000000000163e-01 -9.459960000000000591e-01
5.400000000000000000e+03 6.983876953125000675e+00 -1.612566650390625256e+01 -5.223537597656250142e+00 -7.031250000000000000e+01 7.763671875000000000e+01 -6.372070312500000000e+01 -5.111430000000000140e-01 7.552710000000000257e-01 -9.688830000000000497e-01
5.410000000000000000e+03 6.502478027343750355e+00 -1.756028320312499957e+01 -2.244133300781250284e+00 2.062988281250000000e+01 9.082031250000000000e+01 -9.381103515625000000e+01 -5.111430000000000140e-01 7.552710000000000257e-01 -9.688830000000000497e-01
5.420000000000000000e+03 3.063229980468749947e+00 -1.948587890625000085e+01 1.563947753906250071e+00 5.700683593750000000e+01 7.641601562500000000e+01 -9.429931640625000000e+01 -5.569169999999999954e-01 7.705290000000000195e-01 -9.231090000000000684e-01
5.430000000000000000e+03 -3.592529296875000000e-01 -2.106419677734375284e+01 2.383044433593750178e+00 3.710937500000000000e+01 4.583740234375000000e+01 -8.831787109375000000e+01 -5.569169999999999954e-01 7.705290000000000195e-01 -9.231090000000000684e-01
5.440000000000000000e+03 -4.998405761718750284e+00 -1.889430908203125270e+01 -2.538720703125000311e-01 4.290771484375000000e+01 3.051757812500000000e+00 -8.251953125000000000e+01 -5.187720000000000109e-01 7.323840000000000350e-01 -9.459960000000000591e-01
5.450000000000000000e+03 -3.901486816406250391e+00 -1.495450195312500163e+01 -1.844165039062500178e+00 7.757568359375000000e+01 -2.838134765625000000e+01 -7.489013671875000000e+01 -5.187720000000000109e-01 7.323840000000000350e-01 -9.459960000000000591e-01
5.460000000000000000e+03 -6.193520507812499964e+00 -1.153201904296875036e+01 -1.149609375000000044e+00 1.035156250000000000e+02 1.159667968750000000e+00 -6.439208984375000000e+01 -5.798039999999999861e-01 6.866100000000000536e-01 -1.007028000000000034e+00
5.470000000000000000e+03 -4.598437500000000178e+00 -8.466394042968749645e+00 -4.430786132812500333e-01 1.116333007812500000e+02 1.086425781250000000e+01 -5.786132812500000000e+01 -5.798039999999999861e-01 6.866100000000000536e-01 -1.007028000000000034e+00
5.480000000000000000e+03 -2.421364746093749964e+00 -8.212521972656251279e+00 1.221459960937500089e+00 8.306884765625000000e+01 7.568359375000000000e+00 -4.199218750000000000e+01 -5.645459999999999923e-01 6.713520000000000598e-01 -1.007028000000000034e+00
5.490000000000000000e+03 -1.542392578125000080e+00 -6.516848144531250497e+00 4.957690429687500178e-01 6.646728515625000000e+01 -8.911132812500000000e+00 -2.227783203125000000e+01 -5.645459999999999923e-01 6.713520000000000598e-01 -1.007028000000000034e+00
5.500000000000000000e+03 -6.634204101562500844e-01 -6.576723632812500497e+00 4.526586914062500355e-01 7.586669921875000000e+01 -1.831054687500000000e+01 -1.220703125000000000e-01 -6.026909999999999767e-01 6.332070000000000753e-01 -1.029915000000000136e+00
5.510000000000000000e+03 -6.706054687500000444e-01 -4.574487304687500533e+00 6.490502929687500533e-01 1.049804687500000000e+02 -3.204345703125000000e+01 1.989746093750000000e+01 -6.026909999999999767e-01 6.332070000000000753e-01 -1.029915000000000136e+00
5.520000000000000000e+03 -2.059716796875000200e-01 -1.944755859375000062e+00 8.167016601562500089e-01 1.173095703125000000e+02 -4.138183593750000000e+01 4.016113281250000000e+01 -6.026909999999999767e-01 6.332070000000000753e-01 -1.014657000000000142e+00
5.530000000000000000e+03 -7.232958984375000844e-01 7.280859375000000577e-01 3.400927734374999956e-01 1.348266601562500000e+02 -3.771972656250000000e+01 6.060791015625000000e+01 -6.026909999999999767e-01 6.332070000000000753e-01 -1.014657000000000142e+00
5.540000000000000000e+03 -1.631008300781250142e+00 3.697910156250000302e+00 -2.850073242187500244e-01 1.674194335937500000e+02 -1.904296875000000000e+01 8.251953125000000000e+01 -5.950619999999999798e-01 5.645459999999999923e-01 -1.037544000000000022e+00
5.550000000000000000e+03 -2.459685058593750195e+00 5.925278320312500568e+00 -2.754272460937500222e-01 1.942138671875000000e+02 -4.638671875000000000e+00 1.010131835937500000e+02 -5.950619999999999798e-01 5.645459999999999923e-01 -1.037544000000000022e+00
5.560000000000000000e+03 -2.644101562499999947e+00 7.505991210937500213e+00 3.281176757812500067e-01 2.016601562500000000e+02 -6.103515625000000000e-01 1.169433593750000000e+02 -5.950619999999999798e-01 5.798039999999999861e-01 -1.052802000000000016e+00
5.570000000000000000e+03 -1.463356933593749964e+00 8.475974121093750924e+00 1.415456542968750009e+00 1.858520507812500000e+02 6.530761718750000000e+00 1.267700195312500000e+02 -5.950619999999999798e-01 5.798039999999999861e-01 -1.052802000000000016e+00
5.580000000000000000e+03 -2.004631347656250284e+00 9.520202636718750000e+00 8.598120117187499911e-01 9.100341796875000000e+01 7.165527343750000000e+01 1.342163085937500000e+02 -5.492879999999999985e-01 5.492879999999999985e-01 -1.098575999999999997e+00
5.590000000000000000e+03 -1.413061523437500189e-01 9.414821777343750142e+00 1.290915527343750036e+00 1.892089843750000000e+01 7.006835937500000000e+01 1.248168945312500000e+02 -5.492879999999999985e-01 5.492879999999999985e-01 -1.098575999999999997e+00
5.600000000000000000e+03 1.813029785156250018e+00 7.690407714843749964e+00 2.488425292968750036e+00 -5.090332031250000000e+01 4.461669921875000000e+01 1.127929687500000000e+02 -5.340300000000000047e-01 5.187720000000000109e-01 -1.144349999999999978e+00
5.610000000000000000e+03 4.598437499999999956e-01 6.634204101562500178e+00 1.437011718750000056e-01 -1.124267578125000000e+02 4.644775390625000000e+01 9.478759765625000000e+01 -5.340300000000000047e-01 5.187720000000000109e-01 -1.144349999999999978e+00
5.620000000000000000e+03 1.041833496093750089e+00 5.645061035156250462e+00 -7.927514648437500311e-01 -1.369628906250000000e+02 5.352783203125000000e+01 7.458496093750000000e+01 -4.882560000000000233e-01 5.492879999999999985e-01 -1.129091999999999985e+00
5.630000000000000000e+03 9.771679687500000044e-01 4.895419921874999858e+00 -1.250200195312500151e+00 -1.636962890625000000e+02 4.254150390625000000e+01 5.065917968750000000e+01 -4.882560000000000233e-01 5.492879999999999985e-01 -1.129091999999999985e+00
5.640000000000000000e+03 3.135080566406250213e+00 4.368515625000000568e+00 -8.071215820312500622e-01 -1.701660156250000000e+02 7.012939453125000000e+01 2.569580078125000000e+01 -4.958850000000000202e-01 6.026909999999999767e-01 -1.090947000000000111e+00
5.650000000000000000e+03 2.235271728515625256e+01 3.942202148437500053e+00 1.747645751953125171e+01 -4.492187500000000000e+01 -1.414794921875000000e+02 9.765625000000000000e-01 -4.958850000000000202e-01 6.026909999999999767e-01 -1.090947000000000111e+00
5.660000000000000000e+03 1.024828857421875128e+01 4.612807617187500320e+00 1.930385742187500142e+01 -3.143310546875000000e+01 -1.322021484375000000e+02 9.643554687500000000e+00 -4.501110000000000388e-01 6.789810000000000567e-01 -1.075689000000000117e+00
5.670000000000000000e+03 -1.600352050781249957e+01 6.030659179687500426e+00 1.848476074218750043e+01 -2.434082031250000000e+02 -1.473388671875000000e+02 -4.315185546875000000e+01 -4.501110000000000388e-01 6.789810000000000567e-01 -1.075689000000000117e+00
5.680000000000000000e+03 -8.543034667968750995e+00 -3.412902832031250000e+00 8.545429687500000426e+00 -3.387451171875000000e+02 -9.985351562500000000e+01 -1.502075195312500000e+02 -4.806270000000000264e-01 6.789810000000000567e-01 -1.029915000000000136e+00
5.690000000000000000e+03 -7.386240234375000213e+00 -2.113125732421875114e+01 1.089015380859374993e+01 -2.585449218750000000e+02 -1.571655273437500000e+02 -2.640991210937500000e+02 -4.806270000000000264e-01 6.789810000000000567e-01 -1.029915000000000136e+00
5.700000000000000000e+03 -7.216193847656250604e+00 -5.569617919921875426e+01 2.638593017578125099e+01 -2.513427734375000000e+02 1.313476562500000000e+02 -4.211425781250000000e+02 -4.882560000000000233e-01 7.171260000000000412e-01 -9.154800000000000715e-01
5.710000000000000000e+03 4.279660400390625341e+01 -5.882167968750000142e+01 -1.195114746093750124e+00 -4.227294921875000000e+02 2.386474609375000000e+01 -2.829589843750000000e+02 -4.882560000000000233e-01 7.171260000000000412e-01 -9.154800000000000715e-01
5.720000000000000000e+03 3.465832763671875227e+01 -2.916415283203125242e+01 -2.274310546875000227e+01 -5.975341796875000000e+01 -2.630615234375000000e+01 -2.539062500000000000e+01 -6.026909999999999767e-01 6.484650000000000691e-01 -8.773350000000000870e-01
5.730000000000000000e+03 1.473416015625000064e+01 -5.192402343750000426e+00 -9.529782714843751279e+00 3.496704101562500000e+02 1.199340820312500000e+02 -7.446289062500000000e+00 -6.026909999999999767e-01 6.484650000000000691e-01 -8.773350000000000870e-01
5.740000000000000000e+03 4.117038574218749858e+00 -6.555168457031250284e+00 5.434299316406249858e+00 4.330444335937500000e+02 1.444091796875000000e+02 4.638671875000000000e+00 -6.179490000000000816e-01 6.179490000000000816e-01 -8.468189999999999884e-01
5.750000000000000000e+03 -1.132844238281250027e+00 -1.628373779296875057e+01 5.810317382812500142e+01 2.720336914062500000e+02 3.894042968750000000e+01 -2.636718750000000000e+01 -6.179490000000000816e-01 6.179490000000000816e-01 -8.468189999999999884e-01
5.760000000000000000e+03 1.175954589843750009e+00 -2.438848388671875256e+01 1.060514648437500007e+01 -2.947387695312500000e+02 1.138916015625000000e+02 -5.371093750000000000e+01 -5.950619999999999798e-01 5.950619999999999798e-01 -9.765120000000000466e-01
5.770000000000000000e+03 1.392943359375000156e+01 -4.177153564453125512e+01 4.330195312499999893e+00 -2.754516601562500000e+02 2.071533203125000000e+02 1.477050781250000000e+01 -5.950619999999999798e-01 5.950619999999999798e-01 -9.765120000000000466e-01
5.780000000000000000e+03 2.648891601562500142e+00 -1.912423095703125142e+01 -1.530656982421875156e+01 -2.738037109375000000e+02 4.553222656250000000e+01 9.631347656250000000e+01 -6.179490000000000816e-01 6.179490000000000816e-01 -9.688830000000000497e-01
5.790000000000000000e+03 -1.003992187500000099e+01 -8.557404785156251137e+00 -1.834105957031250256e+01 -1.813354492187500000e+02 4.028320312500000000e+00 1.101684570312500000e+02 -6.179490000000000816e-01 6.179490000000000816e-01 -9.688830000000000497e-01
5.800000000000000000e+03 -9.129814453125000284e+00 -1.080153808593750142e+01 -1.547661621093750028e+01 2.966308593750000000e+01 4.351806640625000000e+01 6.524658203125000000e+01 -6.026909999999999767e-01 6.789810000000000567e-01 -9.231090000000000684e-01
5.810000000000000000e+03 -1.079914306640625021e+01 -1.107696533203125000e+01 -2.950664062500000018e+00 1.936645507812500000e+02 2.832031250000000000e+01 5.249023437500000000e+01 -6.026909999999999767e-01 6.789810000000000567e-01 -9.231090000000000684e-01
5.820000000000000000e+03 -7.343129882812500675e+00 -1.293550048828125121e+01 2.615361328125000107e+00 2.352905273437500000e+02 6.945800781250000000e+01 5.603027343750000000e+01 -5.950619999999999798e-01 6.408360000000000722e-01 -9.154800000000000715e-01
5.830000000000000000e+03 -3.058439941406250195e+00 -1.501677246093750107e+01 5.822292480468750142e+00 2.199096679687500000e+02 9.979248046875000000e+01 6.774902343750000000e+01 -5.950619999999999798e-01 6.408360000000000722e-01 -9.154800000000000715e-01
5.840000000000000000e+03 -3.453618164062500107e+00 -1.563229248046875064e+01 2.407234130859375298e+01 1.966552734375000000e+02 6.384277343750000000e+01 7.409667968750000000e+01 -5.340300000000000047e-01 5.950619999999999798e-01 -9.765120000000000466e-01
5.850000000000000000e+03 -2.996169433593750320e+00 -1.374980712890625156e+01 8.528664550781250853e+00 -1.105346679687500000e+02 3.656005859375000000e+01 5.694580078125000000e+01 -5.340300000000000047e-01 5.950619999999999798e-01 -9.765120000000000466e-01
5.860000000000000000e+03 -7.688012695312500533e-01 -1.576880859375000021e+01 1.666933593750000053e+00 -1.382446289062500000e+02 4.193115234375000000e+01 5.731201171875000000e+01 -5.035140000000000171e-01 5.950619999999999798e-01 -1.022286000000000028e+00
5.870000000000000000e+03 7.855664062500000711e-01 -1.228884521484375014e+01 -3.295546875000000320e+00 -1.115112304687500000e+02 4.132080078125000000e+01 4.809570312500000000e+01 -5.035140000000000171e-01 5.950619999999999798e-01 -1.022286000000000028e+00
5.880000000000000000e+03 1.676513671875000000e+00 -8.293952636718749716e+00 -6.468947753906250320e+00 -3.710937500000000000e+01 2.819824218750000000e+01 4.217529296875000000e+01 -4.882560000000000233e-01 6.560940000000000660e-01 -9.612540000000000529e-01
5.890000000000000000e+03 1.923200683593750071e+00 -5.812712402343750639e+00 -5.110971679687500213e+00 5.975341796875000000e+01 2.105712890625000000e+01 2.947998046875000000e+01 -4.882560000000000233e-01 6.560940000000000660e-01 -9.612540000000000529e-01
5.900000000000000000e+03 2.380649414062500302e+00 -1.949545898437500036e+00 -4.375700683593750639e+00 1.483764648437500000e+02 3.271484375000000000e+01 2.404785156250000000e+01 -4.806270000000000264e-01 6.332070000000000753e-01 -1.029915000000000136e+00
5.910000000000000000e+03 8.502319335937500444e-01 2.009421386718750036e+00 -3.427272949218750142e+00 2.180786132812500000e+02 3.961181640625000000e+01 1.361083984375000000e+01 -4.806270000000000264e-01 6.332070000000000753e-01 -1.029915000000000136e+00
5.920000000000000000e+03 2.826123046875000377e-01 4.057163085937499858e+00 -1.951940917968750133e+00 2.623291015625000000e+02 3.985595703125000000e+01 -1.055908203125000000e+01 -4.653690000000000326e-01 6.179490000000000816e-01 -1.029915000000000136e+00
5.930000000000000000e+03 3.640429687500000289e-01 6.456972656250000497e+00 -4.646337890625000244e-01 2.826538085937500000e+02 6.408691406250000000e+01 -3.466796875000000000e+01 -4.653690000000000326e-01 6.179490000000000816e-01 -1.029915000000000136e+00
5.940000000000000000e+03 1.621428222656249973e+00 1.013093261718750071e+01 3.262016601562500284e+00 2.653198242187500000e+02 1.556396484375000000e+01 -5.877685546875000000e+01 -4.577400000000000357e-01 5.187720000000000109e-01 -1.098575999999999997e+00
5.950000000000000000e+03 2.270478515625000249e+00 1.165895507812500043e+01 3.482358398437500391e+00 1.729736328125000000e+02 4.699707031250000000e+00 -8.380126953125000000e+01 -4.577400000000000357e-01 5.187720000000000109e-01 -1.098575999999999997e+00
5.960000000000000000e+03 6.969506835937500089e-01 1.398451904296875092e+01 2.454895019531250000e+00 -2.471923828125000000e+01 -1.806640625000000000e+01 -1.011962890625000000e+02 -4.577400000000000357e-01 4.729980000000000295e-01 -1.144349999999999978e+00
5.970000000000000000e+03 3.113525390625000028e-02 1.279179931640624979e+01 -1.437011718749999986e-02 -1.884155273437500000e+02 -3.771972656250000000e+01 -1.232299804687500000e+02 -4.577400000000000357e-01 4.729980000000000295e-01 -1.144349999999999978e+00
5.980000000000000000e+03 1.293310546875000133e+00 9.113049316406250711e+00 -3.757785644531250302e+00 -2.495727539062500000e+02 -6.671142578125000000e+01 -1.263427734375000000e+02 -4.882560000000000233e-01 4.577400000000000357e-01 -1.113833999999999991e+00
5.990000000000000000e+03 -4.636757812499999964e+00 6.023474121093750355e+00 -1.405876464843750062e+00 -2.142333984375000000e+02 -8.172607421875000000e+01 -1.078491210937500000e+02 -4.882560000000000233e-01 4.577400000000000357e-01 -1.113833999999999991e+00
6.000000000000000000e+03 -6.849755859375000755e-01 4.038002929687499964e+00 -5.225932617187500462e+00 -1.373901367187500000e+02 -7.080078125000000000e+00 -9.655761718750000000e+01 -5.035140000000000171e-01 5.187720000000000109e-01 -1.144349999999999978e+00
6.010000000000000000e+03 -1.216669921875000115e+00 3.453618164062500107e+00 -4.521796875000000604e+00 -7.818603515625000000e+01 3.021240234375000000e+01 -7.092285156250000000e+01 -5.035140000000000171e-01 5.187720000000000109e-01 -1.144349999999999978e+00
6.020000000000000000e+03 -1.286125488281250062e+00 3.163820800781250053e+00 -2.440524902343750302e+00 -3.302001953125000000e+01 2.868652343750000000e+01 -5.157470703125000000e+01 -5.569169999999999954e-01 4.806270000000000264e-01 -1.075689000000000117e+00
6.030000000000000000e+03 -2.117197265625000213e+00 2.191442871093749911e+00 6.444997558593750675e+00 -2.319335937500000000e+01 4.980468750000000000e+01 -3.094482421875000000e+01 -5.569169999999999954e-01 4.806270000000000264e-01 -1.075689000000000117e+00
6.040000000000000000e+03 -1.413540527343750064e+01 -8.526269531250000311e-01 1.223136474609375135e+01 -4.901123046875000000e+01 2.835693359375000000e+02 -7.324218750000000000e+00 -5.340300000000000047e-01 4.424820000000000420e-01 -1.083318000000000003e+00
6.050000000000000000e+03 -4.881049804687500604e+00 5.467829589843749893e+00 2.382565429687500114e+01 2.014160156250000000e+00 1.037597656250000000e+02 -1.647949218750000000e+01 -5.340300000000000047e-01 4.424820000000000420e-01 -1.083318000000000003e+00
6.060000000000000000e+03 5.566025390625000568e+00 2.660866699218749964e+00 2.129411865234375156e+01 -1.923217773437500000e+02 1.549072265625000000e+02 6.469726562500000000e+00 -4.958850000000000202e-01 4.653690000000000326e-01 -1.121463000000000099e+00
6.070000000000000000e+03 2.280777099609375114e+01 -8.990903320312501279e+00 1.573288330078125163e+01 -4.696044921875000000e+02 1.209106445312500000e+02 8.905029296875000000e+01 -4.958850000000000202e-01 4.653690000000000326e-01 -1.121463000000000099e+00
6.080000000000000000e+03 1.958407470703125242e+01 -3.257226562500000000e+01 2.890788574218750018e+00 -4.434814453125000000e+02 1.652832031250000000e+02 2.410888671875000000e+02 -5.035140000000000171e-01 5.187720000000000109e-01 -1.083318000000000003e+00
6.090000000000000000e+03 2.407952636718750128e+01 -5.308321289062499915e+01 -2.155517578125000222e-01 -1.419067382812500000e+02 1.879882812500000000e+01 3.726806640625000000e+02 -5.035140000000000171e-01 5.187720000000000109e-01 -1.083318000000000003e+00
6.100000000000000000e+03 -6.658154296875000711e+00 -4.048541015625000483e+01 2.751877441406250124e+00 -2.276611328125000000e+02 -4.455566406250000000e+00 3.309936523437500000e+02 -4.272240000000000482e-01 6.408360000000000722e-01 -1.007028000000000034e+00
6.110000000000000000e+03 -2.702061035156250313e+01 -3.368115966796874972e+01 3.036884765624999982e+00 -3.679199218750000000e+02 4.608154296875000000e+01 1.062622070312500000e+02 -4.272240000000000482e-01 6.408360000000000722e-01 -1.007028000000000034e+00
6.120000000000000000e+03 -2.851749755859375313e+01 -1.405397460937500043e+01 -1.203257812500000057e+01 -3.356933593750000000e+00 -1.664428710937500000e+02 -1.708984375000000000e+00 -3.127890000000000392e-01 7.094970000000000443e-01 -9.841410000000000435e-01
6.130000000000000000e+03 -9.014853515625000924e+00 -5.657036132812500284e+00 -3.487148437500000142e+00 1.030883789062500000e+02 -6.579589843750000000e+01 -4.364013671875000000e+01 -3.127890000000000392e-01 7.094970000000000443e-01 -9.841410000000000435e-01
6.140000000000000000e+03 -5.930068359375000320e+00 -1.266725830078125092e+01 2.943479003906249947e+00 1.203613281250000000e+02 3.710937500000000000e+01 -3.613281250000000000e+01 -3.280470000000000330e-01 7.552710000000000257e-01 -9.536250000000000560e-01
6.150000000000000000e+03 2.495610351562500107e+00 -2.755948974609375313e+01 9.022038574218750995e+00 2.081298828125000000e+01 9.790039062500000000e+01 4.028320312500000000e+00 -3.280470000000000330e-01 7.552710000000000257e-01 -9.536250000000000560e-01
6.160000000000000000e+03 1.407313476562500121e+01 -3.027065185546875270e+01 -3.836821289062500195e+00 -7.049560546875000000e+01 -9.405517578125000000e+01 3.424072265625000000e+01 -3.204180000000000361e-01 7.476420000000000288e-01 -9.612540000000000529e-01
6.170000000000000000e+03 2.862048339843750178e+00 -2.776306640625000099e+01 -4.004472656249999929e+00 -6.280517578125000000e+01 -1.392211914062500000e+02 7.934570312500000000e+00 -3.204180000000000361e-01 7.476420000000000288e-01 -9.612540000000000529e-01
6.180000000000000000e+03 3.441643066406250284e+00 -1.831710937500000114e+01 -8.619675292968750568e+00 -3.735351562500000000e+01 -4.669189453125000000e+01 -9.765625000000000000e+00 -3.509340000000000237e-01 7.629000000000000226e-01 -9.765120000000000466e-01
6.190000000000000000e+03 5.156477050781250071e+00 -1.461680419921875007e+01 -1.140987304687500092e+01 4.986572265625000000e+01 -2.203369140625000000e+01 -4.376220703125000000e+01 -3.509340000000000237e-01 7.629000000000000226e-01 -9.765120000000000466e-01
6.200000000000000000e+03 4.718188476562500178e+00 -1.292113037109375107e+01 -4.528981933593749787e+00 1.395874023437500000e+02 -1.220703125000000000e+01 -7.629394531250000000e+01 -3.280470000000000330e-01 7.094970000000000443e-01 -9.536250000000000560e-01
6.210000000000000000e+03 5.925278320312500568e+00 -1.425515625000000064e+01 2.124382324218750284e+00 1.417236328125000000e+02 1.605224609375000000e+01 -9.240722656250000000e+01 -3.280470000000000330e-01 7.094970000000000443e-01 -9.536250000000000560e-01
6.220000000000000000e+03 5.551655273437500426e+00 -1.583347412109375085e+01 4.440366210937500391e+00 1.090698242187500000e+02 -2.166748046875000000e+01 -9.448242187500000000e+01 -3.814500000000000113e-01 6.713520000000000598e-01 -9.459960000000000591e-01
6.230000000000000000e+03 3.135080566406250213e+00 -1.568258789062500114e+01 3.956572265625000195e+00 7.244873046875000000e+01 -3.082275390625000000e+01 -9.387207031250000000e+01 -3.814500000000000113e-01 6.713520000000000598e-01 -9.459960000000000591e-01
6.240000000000000000e+03 2.409389648437500142e+00 -1.656395507812500156e+01 4.684658203125000142e+00 3.186035156250000000e+01 -4.260253906250000000e+01 -8.459472656250000000e+01 -3.890790000000000082e-01 6.484650000000000691e-01 -9.841410000000000435e-01
6.250000000000000000e+03 2.323168945312500178e+00 -1.401086425781250000e+01 1.772314453125000133e+00 6.103515625000000000e+00 -5.682373046875000000e+01 -7.104492187500000000e+01 -3.890790000000000082e-01 6.484650000000000691e-01 -9.841410000000000435e-01
6.260000000000000000e+03 2.421364746093749964e+00 -1.444675781250000135e+01 -6.251000976562500755e-01 -6.103515625000000000e-02 -5.450439453125000000e+01 -4.650878906250000000e+01 -4.119659999999999989e-01 6.560940000000000660e-01 -1.007028000000000034e+00
6.270000000000000000e+03 1.437011718750000000e+00 -1.364682128906250114e+01 -2.672841796875000231e+00 2.581787109375000000e+01 -6.506347656250000000e+01 -1.989746093750000000e+01 -4.119659999999999989e-01 6.560940000000000660e-01 -1.007028000000000034e+00
6.280000000000000000e+03 3.999682617187499956e-01 -1.221699462890625121e+01 -2.246528320312500160e+00 6.127929687500000000e+01 -3.308105468750000000e+01 1.525878906250000000e+00 -4.424820000000000420e-01 6.408360000000000722e-01 -9.917700000000000404e-01
6.290000000000000000e+03 -3.353027343750000083e-02 -1.157033935546875014e+01 -1.549577636718750151e+00 1.108398437500000000e+02 -2.838134765625000000e+01 1.898193359375000000e+01 -4.424820000000000420e-01 6.408360000000000722e-01 -9.917700000000000404e-01
6.300000000000000000e+03 -4.311035156250000444e-01 -8.226892089843749645e+00 -1.868115234375000044e+00 1.712646484375000000e+02 -3.802490234375000000e+01 3.106689453125000000e+01 -4.348530000000000451e-01 6.332070000000000753e-01 -9.993990000000000373e-01
6.310000000000000000e+03 -1.916015625000000000e+00 -4.045187988281250036e+00 -1.365161132812500178e+00 2.205810546875000000e+02 -5.957031250000000000e+01 4.473876953125000000e+01 -4.348530000000000451e-01 6.332070000000000753e-01 -9.993990000000000373e-01
6.320000000000000000e+03 -3.671564941406250338e+00 2.442919921875000011e-01 5.221142578124999822e-01 2.232055664062500000e+02 -4.675292968750000000e+01 5.883789062500000000e+01 -4.424820000000000420e-01 5.798039999999999861e-01 -1.052802000000000016e+00
6.330000000000000000e+03 -3.446433105468750036e+00 3.767365722656250249e+00 4.311035156250000444e-01 2.286987304687500000e+02 -1.593017578125000000e+01 7.220458984375000000e+01 -4.424820000000000420e-01 5.798039999999999861e-01 -1.052802000000000016e+00
6.340000000000000000e+03 -2.584226074218749947e+00 5.779182128906250604e+00 4.095483398437499978e-01 2.306518554687500000e+02 2.667236328125000000e+01 9.436035156250000000e+01 -4.348530000000000451e-01 5.264010000000000078e-01 -1.045173000000000130e+00
6.350000000000000000e+03 -3.321892089843750284e+00 8.052055664062500284e+00 -1.748364257812499989e-01 2.265014648437500000e+02 2.062988281250000000e+01 1.157226562500000000e+02 -4.348530000000000451e-01 5.264010000000000078e-01 -1.045173000000000130e+00
6.360000000000000000e+03 -4.272714843750000213e+00 9.656718750000001350e+00 5.604345703124999911e-01 1.899414062500000000e+02 4.882812500000000000e-01 1.293334960937500000e+02 -4.424820000000000420e-01 5.035140000000000171e-01 -1.113833999999999991e+00
6.370000000000000000e+03 -5.067861328125000675e+00 1.105541015624999979e+01 1.252595214843750027e+00 1.066894531250000000e+02 -6.286621093750000000e+00 1.316528320312500000e+02 -4.424820000000000420e-01 5.035140000000000171e-01 -1.113833999999999991e+00
6.380000000000000000e+03 -2.984194335937500053e+00 1.021475830078125036e+01 1.980681152343750195e+00 3.289794921875000000e+01 -3.601074218750000000e+00 1.195678710937500000e+02 -3.967080000000000051e-01 4.729980000000000295e-01 -1.174865999999999966e+00
6.390000000000000000e+03 -6.059399414062500711e-01 9.330996093750000497e+00 3.089575195312500022e-01 -1.593017578125000000e+01 1.367187500000000000e+01 1.049194335937500000e+02 -3.967080000000000051e-01 4.729980000000000295e-01 -1.174865999999999966e+00
6.400000000000000000e+03 2.557880859374999982e+00 8.155041503906250711e+00 0.000000000000000000e+00 -4.089355468750000000e+01 2.697753906250000000e+01 8.953857421875000000e+01 -3.433050000000000268e-01 4.958850000000000202e-01 -1.182495000000000074e+00
6.410000000000000000e+03 2.835703125000000213e+00 7.223378906250000675e+00 -1.542392578125000080e+00 -5.737304687500000000e+01 8.544921875000000000e-01 7.415771484375000000e+01 -3.433050000000000268e-01 4.958850000000000202e-01 -1.182495000000000074e+00
6.420000000000000000e+03 8.665180664062500426e+00 8.231682128906250284e+00 -4.854704589843750639e+00 -2.929687500000000000e+01 -5.963134765625000000e+01 5.249023437500000000e+01 -3.051599999999999868e-01 5.035140000000000171e-01 -1.129091999999999985e+00
6.430000000000000000e+03 1.466949462890625000e+01 3.870351562500000231e+00 2.446033447265624972e+01 6.945800781250000000e+01 -1.702270507812500000e+02 4.168701171875000000e+01 -3.051599999999999868e-01 5.035140000000000171e-01 -1.129091999999999985e+00
6.440000000000000000e+03 -7.625742187500000213e+00 1.380489257812500092e+01 2.466391113281250114e+01 -1.490478515625000000e+02 -1.247558593750000000e+02 5.578613281250000000e+01 -3.356760000000000299e-01 5.645459999999999923e-01 -1.174865999999999966e+00
6.450000000000000000e+03 -1.112486572265625107e+01 6.009104003906250213e+00 5.439089355468750497e+00 -2.510986328125000000e+02 -1.398925781250000000e+02 -2.020263671875000000e+01 -3.356760000000000299e-01 5.645459999999999923e-01 -1.174865999999999966e+00
6.460000000000000000e+03 -8.281977539062500782e+00 7.424560546875000333e-02 6.370751953125000089e-01 -2.808227539062500000e+02 -1.367187500000000000e+02 -1.034545898437500000e+02 -3.585630000000000206e-01 5.569169999999999954e-01 -1.045173000000000130e+00
6.470000000000000000e+03 2.406994628906250266e+00 -8.001760253906249787e+00 4.114643554687500426e+00 -2.734985351562500000e+02 -1.413574218750000000e+02 -1.933593750000000000e+02 -3.585630000000000206e-01 5.569169999999999954e-01 -1.045173000000000130e+00
6.480000000000000000e+03 -5.465434570312500462e+00 -3.351111328125000455e+01 1.669089111328124986e+01 -2.414550781250000000e+02 -1.443481445312500000e+02 -2.804565429687500000e+02 -4.424820000000000420e-01 6.255780000000000785e-01 -1.022286000000000028e+00
6.490000000000000000e+03 1.095721435546875000e+01 -6.674200927734375455e+01 1.496168701171874993e+01 -1.987915039062500000e+02 1.059570312500000000e+02 -3.087158203125000000e+02 -4.424820000000000420e-01 6.255780000000000785e-01 -1.022286000000000028e+00
6.500000000000000000e+03 7.433661621093750682e+01 -5.571533935546874972e+01 -1.152722900390624972e+01 -4.459838867187500000e+02 -7.067871093750000000e+01 -1.435546875000000000e+02 -4.882560000000000233e-01 5.645459999999999923e-01 -9.612540000000000529e-01
6.510000000000000000e+03 1.600112548828125014e+01 -1.298100585937500107e+01 -1.755549316406250071e+01 1.800537109375000000e+01 -2.172851562500000000e+01 -6.896972656250000000e+00 -4.882560000000000233e-01 5.645459999999999923e-01 -9.612540000000000529e-01
6.520000000000000000e+03 8.270002441406250071e+00 -6.828200683593750320e+00 -5.918093261718750497e+00 2.950439453125000000e+02 7.568359375000000000e+01 -1.989746093750000000e+01 -5.340300000000000047e-01 6.103199999999999736e-01 -9.002220000000000777e-01
6.530000000000000000e+03 2.998564453125000195e+00 -1.053808593750000000e+01 2.692001953125000124e+00 3.298339843750000000e+02 6.860351562500000000e+01 -2.282714843750000000e+01 -5.340300000000000047e-01 6.103199999999999736e-01 -9.002220000000000777e-01
6.540000000000000000e+03 1.892065429687500133e+00 -1.830752929687499986e+01 1.151525390625000078e+01 2.531738281250000000e+02 5.590820312500000000e+01 -4.083251953125000000e+01 -5.264010000000000078e-01 5.721749999999999892e-01 -9.536250000000000560e-01
6.550000000000000000e+03 4.926555175781250462e+00 -2.452500000000000213e+01 1.564187255859375014e+01 7.098388671875000000e+01 5.389404296875000000e+01 -5.291748046875000000e+01 -5.264010000000000078e-01 5.721749999999999892e-01 -9.536250000000000560e-01
6.560000000000000000e+03 4.622387695312499822e+00 -2.772474609375000298e+01 8.782536621093750995e+00 -7.244873046875000000e+01 9.277343750000000000e+01 -1.562500000000000000e+01 -5.569169999999999954e-01 5.264010000000000078e-01 -9.993990000000000373e-01
6.570000000000000000e+03 5.831872558593750533e+00 -2.216351074218750128e+01 -4.701423339843750604e+00 -1.643676757812500000e+02 1.232910156250000000e+02 2.642822265625000000e+01 -5.569169999999999954e-01 5.264010000000000078e-01 -9.993990000000000373e-01
6.580000000000000000e+03 -4.435576171875000639e+00 -1.140029296875000142e+01 -6.682104492187500355e+00 -1.569213867187500000e+02 1.708984375000000000e+00 5.847167968750000000e+01 -4.958850000000000202e-01 5.111430000000000140e-01 -9.993990000000000373e-01
6.590000000000000000e+03 -4.246369628906250249e+00 -1.035366943359375114e+01 -9.371711425781249716e+00 -8.251953125000000000e+01 5.187988281250000000e+01 4.266357421875000000e+01 -4.958850000000000202e-01 5.111430000000000140e-01 -9.993990000000000373e-01
6.600000000000000000e+03 -3.499123535156249964e+00 -1.187929687500000142e+01 -5.098996582031250391e+00 2.532958984375000000e+01 1.312255859375000000e+01 3.698730468750000000e+01 -5.035140000000000171e-01 5.798039999999999861e-01 -9.917700000000000404e-01
6.610000000000000000e+03 -2.387834472656249929e+00 -1.296424072265625149e+01 1.197509765625000104e-02 6.622314453125000000e+01 -1.232910156250000000e+01 4.345703125000000000e+01 -5.035140000000000171e-01 5.798039999999999861e-01 -9.917700000000000404e-01
6.620000000000000000e+03 -2.131567382812499911e+00 -1.498084716796875071e+01 3.743415527343750160e+00 5.200195312500000000e+01 5.529785156250000000e+01 5.200195312500000000e+01 -4.958850000000000202e-01 6.026909999999999767e-01 -9.536250000000000560e-01
6.630000000000000000e+03 7.213798828125000284e+00 -1.579515380859375107e+01 -1.013572265625000135e+01 4.559326171875000000e+01 8.758544921875000000e+01 6.164550781250000000e+01 -4.958850000000000202e-01 6.026909999999999767e-01 -9.536250000000000560e-01
6.640000000000000000e+03 3.808081054687500466e-01 -1.399170410156250099e+01 -2.155517578125000000e+00 7.885742187500000000e+01 6.933593750000000000e+01 6.091308593750000000e+01 -4.958850000000000202e-01 5.874329999999999830e-01 -9.993990000000000373e-01
6.650000000000000000e+03 3.424877929687500377e-01 -1.228884521484375014e+01 1.686093750000000169e+00 8.880615234375000000e+01 5.749511718750000000e+01 4.675292968750000000e+01 -4.958850000000000202e-01 5.874329999999999830e-01 -9.993990000000000373e-01
6.660000000000000000e+03 6.394702148437499956e-01 -1.078477294921875007e+01 1.207089843750000169e+00 6.329345703125000000e+01 5.053710937500000000e+01 3.588867187500000000e+01 -4.424820000000000420e-01 5.645459999999999923e-01 -1.052802000000000016e+00
6.670000000000000000e+03 -7.041357421875000799e-01 -8.734636230468749929e+00 7.927514648437500311e-01 4.614257812500000000e+01 4.132080078125000000e+01 2.935791015625000000e+01 -4.424820000000000420e-01 5.645459999999999923e-01 -1.052802000000000016e+00
6.680000000000000000e+03 -1.302890625000000080e+00 -7.350314941406250746e+00 4.766088867187500133e-01 5.151367187500000000e+01 3.900146484375000000e+01 1.757812500000000000e+01 -4.195949999999999958e-01 5.416590000000000016e-01 -1.045173000000000130e+00
6.690000000000000000e+03 -6.849755859375000755e-01 -5.285808105468750462e+00 -5.269042968750000527e-02 7.159423828125000000e+01 3.692626953125000000e+01 7.690429687500000000e+00 -4.195949999999999958e-01 5.416590000000000016e-01 -1.045173000000000130e+00
6.700000000000000000e+03 -8.741821289062500222e-01 -1.674118652343750124e+00 -9.316625976562500355e-01 1.002807617187500000e+02 3.356933593750000000e+01 4.211425781250000000e+00 -4.195949999999999958e-01 5.264010000000000078e-01 -1.090947000000000111e+00
