TIME,ACCX,ACCY,ACCZ,GYRX,GYRY,GYRZ,MAGX,MAGY,MAGZ,LAB
0.000000000000000000e+00,-2.282453613281250071e+00,-6.076164550781250284e+00,3.434458007812500213e+00
1.000000000000000021e-02,-1.623823242187500071e+00,-6.219865722656249929e+00,2.653681640625000338e+00
2.000000000000000042e-02,-8.286767578125000533e-01,-5.831872558593750533e+00,2.126777343750000160e+00
2.999999999999999889e-02,-6.586303710937500000e-01,-5.939648437500000711e+00,9.723779296875000311e-01
4.000000000000000083e-02,-1.372346191406250027e+00,-5.604345703125000355e+00,7.664062500000000389e-02
5.000000000000000278e-02,-8.981323242187500000e-01,-5.355263671874999964e+00,-2.155517578125000222e-01
5.999999999999999778e-02,-1.947150878906250160e+00,-4.945715332031250355e+00,9.436376953125000799e-01
7.000000000000000666e-02,-1.547182617187500053e+00,-5.530100097656250213e+00,1.710043945312500036e+00
8.000000000000000167e-02,-9.484277343750000533e-01,-5.949228515625000213e+00,1.532812500000000133e+00
8.999999999999999667e-02,1.676513671875000042e-02,-6.219865722656249929e+00,3.903881835937499933e-01
1.000000000000000056e-01,-9.292675781250000488e-01,-5.467829589843749893e+00,-1.245410156250000011e-01
1.100000000000000006e-01,-9.987231445312499956e-01,-5.518125000000000391e+00,5.125341796875000355e-01
1.199999999999999956e-01,-4.239184570312500289e-01,-5.676196289062500178e+00,9.005273437500000977e-01
1.300000000000000044e-01,-3.161425781250000178e-01,-6.183940429687500462e+00,8.095166015625000488e-01
1.400000000000000133e-01,-4.981640625000000044e-01,-7.043752441406250675e+00,1.676513671875000042e-02
1.499999999999999944e-01,-3.784130859375000044e-01,-7.711962890625000178e+00,-1.362766113281250080e+00
1.600000000000000033e-01,-2.395019531250000000e-01,-8.210126953125000071e+00,-1.300495605468749982e+00
1.700000000000000122e-01,-1.202299804687499973e+00,-8.866362304687500639e+00,-1.389111328125000044e+00
1.799999999999999933e-01,-1.616638183593750000e+00,-9.474697265625000142e+00,-1.130449218750000151e+00
1.900000000000000022e-01,-2.074086914062500231e+00,-9.812395019531249929e+00,-7.759863281250000133e-01
2.000000000000000111e-01,-2.133962402343750231e+00,-1.036564453125000007e+01,1.317260742187500167e-01
2.099999999999999922e-01,-1.951940917968750133e+00,-1.101229980468750114e+01,8.574169921875000044e-01
2.200000000000000011e-01,-2.150727539062500249e+00,-1.124222167968749986e+01,2.241738281249999964e+00
2.300000000000000100e-01,-2.007026367187500160e+00,-1.118474121093750107e+01,3.154240722656250107e+00
2.399999999999999911e-01,-1.422641601562500080e+00,-1.073447753906250135e+01,4.507426757812500462e+00
2.500000000000000000e-01,6.442602539062500799e-01,-1.155836425781250121e+01,7.891589355468750178e+00
2.600000000000000089e-01,1.099313964843749991e+00,-1.072010742187500121e+01,5.424719238281250355e+00
2.700000000000000178e-01,1.870510253906250142e+00,-1.142903320312499993e+01,2.771037597656250018e+00
2.800000000000000266e-01,1.841770019531250080e+00,-1.154638916015625050e+01,-6.969506835937500089e-01
2.899999999999999800e-01,6.706054687500000444e-01,-1.110810058593749972e+01,-4.253554687500000320e+00
2.999999999999999889e-01,-4.981640625000000044e-01,-1.051892578125000099e+01,-3.386557617187500036e+00
3.099999999999999978e-01,-2.706372070312499933e-01,-9.445957031249999858e+00,9.819580078125000888e-01
3.200000000000000067e-01,2.179467773437500089e+00,-1.029618896484375057e+01,5.211562500000000320e+00
3.300000000000000155e-01,4.210444335937499893e+00,-1.077519287109375057e+01,8.320297851562500568e+00
3.400000000000000244e-01,7.882009277343750675e+00,-1.299058593750000057e+01,1.004950195312500050e+01
3.499999999999999778e-01,6.018684082031250604e+00,-1.154399414062500107e+01,1.387913818359375107e+01
3.599999999999999867e-01,7.165898437500000107e+00,-1.219783447265625043e+01,4.615202636718750639e+00
3.699999999999999956e-01,3.915856933593750089e+00,-1.198228271484375007e+01,2.380649414062500302e+00
3.800000000000000044e-01,-1.075363769531250124e+00,-1.145058837890625014e+01,2.526745605468750266e+00
3.900000000000000133e-01,-2.900368652343749964e+00,-1.111289062500000036e+01,9.836345214843751350e+00
4.000000000000000222e-01,-3.690725097656250231e+00,-1.103625000000000078e+01,8.830437011718750284e+00
4.099999999999999756e-01,-3.705095214843750373e+00,-1.500000732421875149e+01,3.877536621093750302e+00
4.199999999999999845e-01,-3.767365722656250249e+00,-1.506227783203125092e+01,3.331472167968750231e+00
4.299999999999999933e-01,-2.692001953125000124e+00,-1.397493896484375142e+01,3.051254882812500124e+00
4.400000000000000022e-01,-2.862048339843750178e+00,-1.224094482421875085e+01,6.116879882812500391e+00
4.500000000000000111e-01,-1.480122070312499982e+00,-1.084225341796875064e+01,3.841611328125000391e+00
4.600000000000000200e-01,-5.819897460937499822e-01,-1.008782226562500028e+01,2.148332519531249929e+00
4.699999999999999734e-01,5.029541015625000472e-02,-8.583750000000000213e+00,2.090852050781250249e+00
4.799999999999999822e-01,4.311035156250000444e-01,-7.654482421875000497e+00,2.577041015625000320e+00
4.899999999999999911e-01,1.116079101562500009e+00,-6.900051269531250142e+00,3.058439941406250195e+00
5.000000000000000000e-01,1.786684570312500053e+00,-6.215075683593750178e+00,3.755390624999999982e+00
5.100000000000000089e-01,2.320773925781250302e+00,-6.203100585937500355e+00,3.288361816406250249e+00
5.200000000000000178e-01,2.660866699218749964e+00,-6.722819824218750462e+00,2.404599609374999947e+00
5.300000000000000266e-01,2.529140625000000142e+00,-7.094047851562500284e+00,1.820214843750000089e+00
5.400000000000000355e-01,2.282453613281250071e+00,-7.249724121093750639e+00,2.299218750000000089e+00
5.500000000000000444e-01,2.107617187500000266e+00,-7.096442871093750604e+00,2.244133300781250284e+00
5.600000000000000533e-01,1.892065429687500133e+00,-7.106022949218750107e+00,1.930385742187500142e+00
5.699999999999999512e-01,2.019001464843749982e+00,-7.082072753906250462e+00,1.803449707031250071e+00
5.799999999999999600e-01,2.035766601562500000e+00,-6.567143554687500107e+00,2.023791503906250178e+00
5.899999999999999689e-01,1.693278808593750018e+00,-5.836662597656250284e+00,2.035766601562500000e+00
5.999999999999999778e-01,1.369951171875000151e+00,-6.128854980468750213e+00,2.270478515625000249e+00
6.099999999999999867e-01,3.616479492187500422e-01,-6.013894042968749964e+00,7.065307617187500666e-01
6.199999999999999956e-01,1.724414062500000122e-01,-5.247487792968750675e+00,2.260898437500000302e+00
6.300000000000000044e-01,-1.516047363281250115e+00,-6.581513671875000249e+00,2.356699218750000213e+00
6.400000000000000133e-01,-1.384321289062500071e+00,-6.133645019531249964e+00,6.346801757812500222e-01
6.500000000000000222e-01,-2.016606445312500107e+00,-6.318061523437500604e+00,2.385439453125000053e+00
6.600000000000000311e-01,-2.838098144531250089e+00,-7.098837890625000036e+00,1.180744628906249982e+00
6.700000000000000400e-01,-2.780617675781249964e+00,-8.016130371093749929e+00,1.528022460937500160e+00
6.800000000000000488e-01,-2.459685058593750195e+00,-8.693920898437500711e+00,1.037043457031250115e+00
6.899999999999999467e-01,-2.145937500000000053e+00,-9.168134765625000071e+00,3.927832031250000355e-01
6.999999999999999556e-01,-1.755549316406250115e+00,-9.424401855468749645e+00,1.844165039062500011e-01
7.099999999999999645e-01,-1.640588378906250089e+00,-9.436376953125000355e+00,3.832031250000000194e-02
7.199999999999999734e-01,-1.904040527343750178e+00,-9.074729003906250924e+00,-9.388476562499999956e-01
7.299999999999999822e-01,-2.117197265625000213e+00,-8.270002441406250071e+00,-7.328759765625000311e-01
7.399999999999999911e-01,-2.442919921875000178e+00,-7.010222167968750639e+00,-5.676196289062500622e-01
7.500000000000000000e-01,-2.306403808593750160e+00,-6.682104492187500355e+00,8.717871093750000355e-01
7.600000000000000089e-01,-2.471660156250000018e+00,-6.809040527343750426e+00,2.529140625000000142e+00
7.700000000000000178e-01,-3.068020019531250142e+00,-7.309599609375000639e+00,3.415297851562500320e+00
7.800000000000000266e-01,-2.397414550781250320e+00,-8.253237304687500497e+00,3.012934570312500338e+00
7.900000000000000355e-01,-1.662143554687500080e+00,-9.546547851562500853e+00,2.371069335937499911e+00
8.000000000000000444e-01,-1.896855468750000107e+00,-1.046623535156250107e+01,2.579436035156250195e+00
8.100000000000000533e-01,-2.136357421875000107e+00,-1.160865966796874993e+01,2.203417968750000178e+00
8.199999999999999512e-01,-1.604663085937500178e+00,-1.276305908203125128e+01,-3.448828125000000244e-01
8.299999999999999600e-01,-8.023315429687500888e-01,-1.232956054687500114e+01,-1.015488281250000124e+00
8.399999999999999689e-01,4.358935546875000178e-01,-1.105780517578125099e+01,-1.772314453125000133e+00
8.499999999999999778e-01,1.760339355468750089e+00,-1.019080810546875071e+01,2.311193847656249911e+00
8.599999999999999867e-01,-2.663261718750000284e+00,-9.489067382812500284e+00,6.203100585937500355e+00
8.699999999999999956e-01,-4.471501464843750107e+00,-1.025786865234375078e+01,5.113366699218750533e+00
8.800000000000000044e-01,-4.842729492187499929e+00,-1.076561279296875107e+01,6.883286132812500568e+00
8.900000000000000133e-01,-3.839216308593750071e+00,-1.165177001953125036e+01,9.924960937499999858e+00
9.000000000000000222e-01,-3.647614746093750249e+00,-1.116558105468750028e+01,7.989785156249999964e+00
9.100000000000000311e-01,-2.783012695312500284e+00,-1.043749511718750078e+01,4.742138671874999822e+00
9.200000000000000400e-01,2.418969726562500144e-01,-8.178991699218750355e+00,7.841293945312500568e+00
9.300000000000000488e-01,1.836979980468750107e+00,-8.308322753906249858e+00,8.004155273437500995e+00
9.399999999999999467e-01,4.227209472656250355e+00,-1.275108398437500057e+01,9.383686523437500426e+00
9.499999999999999556e-01,5.657036132812500284e+00,-1.956970458984375227e+01,7.309599609375000639e+00
9.599999999999999645e-01,8.722661132812500995e+00,-2.416574707031250213e+01,4.332590332031250213e+00
9.699999999999999734e-01,4.464316406250000036e+00,-2.126058837890625242e+01,3.463198242187500053e+00
9.799999999999999822e-01,3.951782226562500222e-01,-1.417612060546874986e+01,-1.250200195312500151e+00
9.899999999999999911e-01,1.075363769531250124e+00,-1.157273437500000135e+01,8.334667968750000266e-01
1.000000000000000000e+00,-7.999365234374999911e-01,-9.927355957031251066e+00,2.521955566406250071e+00
1.010000000000000009e+00,-1.815424804687500115e+00,-1.039438476562500036e+01,1.008063720703125021e+01
1.020000000000000018e+00,-2.284848632812499947e+00,-9.534572753906250142e+00,2.687211914062499929e+00
1.030000000000000027e+00,-2.236948242187500213e+00,-9.616003417968750355e+00,4.038002929687499964e+00
1.040000000000000036e+00,-2.687211914062499929e+00,-9.340576171875000000e+00,3.650009765625000124e+00
1.050000000000000044e+00,-3.039279785156250302e+00,-8.559799804687500568e+00,4.241579589843750497e+00
1.060000000000000053e+00,-3.283571777343750053e+00,-7.800578613281250462e+00,3.240461425781250071e+00
1.070000000000000062e+00,-3.721860351562500391e+00,-6.892866210937500071e+00,3.089575195312500355e+00
1.080000000000000071e+00,-3.532653808593750000e+00,-6.636599121093750497e+00,2.732717285156250231e+00
1.090000000000000080e+00,-2.541115722656249964e+00,-7.139553222656250142e+00,3.329077148437500355e+00
1.100000000000000089e+00,-1.662143554687500080e+00,-7.779023437500000249e+00,3.027304687500000036e+00
1.110000000000000098e+00,-8.981323242187500000e-01,-7.565866699218750213e+00,1.460961914062500089e+00
1.120000000000000107e+00,-8.669970703125000622e-01,-8.032895507812501279e+00,6.442602539062500799e-01
1.129999999999999893e+00,-1.290915527343750036e+00,-7.323969726562500782e+00,-6.466552734375000111e-02
1.139999999999999902e+00,-6.658154296875000711e-01,-6.852150878906249964e+00,2.323168945312500122e-01
1.149999999999999911e+00,-5.125341796875000355e-01,-6.167175292968750000e+00,8.741821289062500222e-01
1.159999999999999920e+00,-2.897973632812499978e-01,-6.155200195312500178e+00,1.015488281250000124e+00
1.169999999999999929e+00,1.389111328125000044e-01,-6.231840820312500639e+00,7.352709960937500178e-01
1.179999999999999938e+00,5.388793945312500000e-01,-5.934858398437500071e+00,6.059399414062500711e-01
1.189999999999999947e+00,3.879931640625000067e-01,-5.762416992187500142e+00,1.051413574218750036e+00
1.199999999999999956e+00,1.221459960937500006e-01,-5.621110839843749929e+00,1.171164550781250036e+00
1.209999999999999964e+00,-6.490502929687500533e-01,-5.592370605468750533e+00,7.711962890625000400e-01
1.219999999999999973e+00,-9.364526367187500089e-01,-5.975573730468750178e+00,-1.460961914062500200e-01
1.229999999999999982e+00,-1.336420898437500115e+00,-6.638994140624999929e+00,-9.819580078125000888e-01
1.239999999999999991e+00,-1.415456542968750009e+00,-7.017407226562500711e+00,-1.913620605468750124e+00
1.250000000000000000e+00,-1.971101074218750027e+00,-7.345524902343750107e+00,-2.143542480468750178e+00
1.260000000000000009e+00,-2.083666992187500178e+00,-7.623347167968750782e+00,-1.664538574218750178e+00
1.270000000000000018e+00,-2.244133300781250284e+00,-8.078400878906251137e+00,-5.316943359375000400e-01
1.280000000000000027e+00,-2.052531738281250018e+00,-8.602910156250000995e+00,2.131567382812500078e-01
1.290000000000000036e+00,-1.573527832031250018e+00,-9.479487304687500782e+00,5.963598632812500133e-01
1.300000000000000044e+00,-1.396296386718750115e+00,-1.045186523437500092e+01,8.765771484375000089e-01
1.310000000000000053e+00,-1.460961914062500089e+00,-1.007105712890625071e+01,1.587897949218750160e+00
1.320000000000000062e+00,-1.604663085937499956e-01,-1.038001464843750021e+01,3.781735839843750391e+00
1.330000000000000071e+00,1.377136230468750000e+00,-1.046144531250000043e+01,5.637875976562500391e+00
1.340000000000000080e+00,2.373464355468750231e+00,-1.010698242187500107e+01,5.661826171875000036e+00
1.350000000000000089e+00,2.253713378906250231e+00,-1.084225341796875064e+01,4.749323730468749893e+00
1.360000000000000098e+00,7.280859375000000577e-01,-9.218430175781250568e+00,-6.466552734375000111e-02
1.370000000000000107e+00,-1.640588378906250089e+00,-8.420888671874999787e+00,-4.938530273437500284e+00
1.379999999999999893e+00,-3.726650390625000142e+00,-7.276069335937500604e+00,-2.759062500000000195e+00
1.389999999999999902e+00,2.179467773437500089e-01,-6.854545898437500284e+00,5.029541015625000000e+00
1.399999999999999911e+00,5.657036132812500284e+00,-8.145461425781251208e+00,1.288041503906250007e+01
1.409999999999999920e+00,1.066741699218750128e+01,-1.079195800781250014e+01,2.316702392578125114e+01
1.419999999999999929e+00,8.380173339843750568e+00,-1.410666503906250036e+01,4.763693847656250036e+00
1.429999999999999938e+00,2.059716796875000089e+00,-1.303130126953124979e+01,-1.283730468749999964e+00
1.439999999999999947e+00,-1.688488769531250044e+00,-1.506467285156250036e+01,-2.059716796875000089e+00
1.449999999999999956e+00,-4.622387695312499822e+00,-1.354383544921875071e+01,1.108894042968750160e+00
1.459999999999999964e+00,-9.678273925781249787e+00,-1.435095703125000099e+01,1.428629150390625036e+01
1.469999999999999973e+00,-6.686894531250000107e+00,-1.365400634765625121e+01,3.827241210937500249e+00
1.479999999999999982e+00,-3.139870605468749964e+00,-1.632924316406250043e+01,3.911066894531250338e+00
1.489999999999999991e+00,-2.203417968750000233e-01,-1.478206054687499993e+01,3.817661132812500302e+00
1.500000000000000000e+00,1.559157714843750098e+00,-1.421923095703125028e+01,5.750441894531250320e+00
1.510000000000000009e+00,1.863325195312500071e+00,-1.300974609375000135e+01,6.732399902343749964e+00
1.520000000000000018e+00,1.381926269531249973e+00,-1.314865722656250036e+01,4.006867675781250249e+00
1.530000000000000027e+00,6.586303710937500000e-01,-1.198467773437500128e+01,1.523232421875000187e+00
1.540000000000000036e+00,7.376660156250000044e-01,-1.113205078125000114e+01,1.132844238281250027e+00
1.550000000000000044e+00,7.113208007812500400e-01,-1.013093261718750071e+01,3.580554199218750178e+00
1.560000000000000053e+00,1.113684082031250133e+00,-9.007668457031250853e+00,2.608176269531250036e+00
1.570000000000000062e+00,2.553090820312500231e+00,-7.503596191406250782e+00,2.098037109375000320e+00
1.580000000000000071e+00,2.239343261718750089e+00,-6.876101074218750497e+00,2.804567871093750053e+00
1.590000000000000080e+00,2.248923339843750036e+00,-6.777905273437500711e+00,1.602268066406250080e+00
1.600000000000000089e+00,2.720742187499999964e+00,-7.182663574218750568e+00,1.566342773437500169e+00
1.610000000000000098e+00,3.015329589843750213e+00,-6.713239746093750071e+00,2.141147460937500302e+00
1.620000000000000107e+00,2.967429199218750036e+00,-6.310876464843750533e+00,2.464475097656249947e+00
1.629999999999999893e+00,2.519560546875000195e+00,-6.797065429687500604e+00,1.302890625000000080e+00
1.639999999999999902e+00,2.236948242187500213e+00,-6.646179199218750000e+00,1.197509765625000000e+00
1.649999999999999911e+00,2.086062011718750053e+00,-7.046147460937500107e+00,9.148974609375000178e-01
1.659999999999999920e+00,1.784289550781250178e+00,-6.339616699218749929e+00,9.364526367187500089e-01
1.669999999999999929e+00,1.147214355468750169e+00,-5.384003906250000249e+00,6.251000976562500755e-01
1.679999999999999938e+00,1.228645019531250160e+00,-4.809199218749999893e+00,1.942360839843750187e+00
1.689999999999999947e+00,7.304809570312500444e-01,-5.364843750000000355e+00,9.532177734375000266e-01
1.699999999999999956e+00,1.250200195312500151e+00,-5.292993164062500533e+00,4.574487304687500089e-01
1.709999999999999964e+00,8.622070312500000611e-02,-6.025869140625000675e+00,1.051413574218750036e+00
1.719999999999999973e+00,-1.844165039062500178e+00,-6.576723632812500497e+00,-8.143066406250000500e-02
1.729999999999999982e+00,-2.203417968750000178e+00,-7.649692382812500746e+00,1.580712890625000089e-01
1.739999999999999991e+00,-2.828518066406250142e+00,-8.258027343750001137e+00,-2.442919921875000011e-01
1.750000000000000000e+00,-3.374582519531250213e+00,-8.602910156250000995e+00,5.628295898437499778e-01
1.760000000000000009e+00,-3.180585937500000071e+00,-8.873547363281250711e+00,1.175954589843750009e+00
1.770000000000000018e+00,-3.467988281250000249e+00,-8.986113281250000639e+00,3.784130859375000044e-01
1.780000000000000027e+00,-3.539838867187500071e+00,-8.660390624999999787e+00,4.263134765625000155e-01
1.790000000000000036e+00,-2.953059082031250338e+00,-8.662785644531250995e+00,4.287084960937500022e-01
1.800000000000000044e+00,-2.938688964843750195e+00,-8.511899414062501279e+00,-2.203417968750000233e-01
1.810000000000000053e+00,-2.909948730468750355e+00,-7.929909667968749964e+00,1.389111328125000044e-01
1.820000000000000062e+00,-3.338657226562500302e+00,-7.575446777343750604e+00,8.933422851562500266e-01
1.830000000000000071e+00,-3.685935058593750036e+00,-7.630532226562499964e+00,1.518442382812499991e+00
1.840000000000000080e+00,-3.824846191406250373e+00,-7.913144531250000391e+00,2.208208007812499929e+00
1.850000000000000089e+00,-3.935017089843749982e+00,-8.190966796875001066e+00,2.747087402343749929e+00
1.860000000000000098e+00,-3.764970703125000373e+00,-8.607700195312499858e+00,2.866838378906249929e+00
1.870000000000000107e+00,-3.467988281250000249e+00,-9.256750488281250355e+00,2.866838378906249929e+00
1.879999999999999893e+00,-3.197351074218750089e+00,-1.021236328125000092e+01,1.298100585937500107e+00
1.889999999999999902e+00,-2.270478515625000249e+00,-1.077519287109375057e+01,-1.916015625000000167e-01
1.899999999999999911e+00,-1.013093261718750027e+00,-1.065304687500000114e+01,-3.400927734374999956e-01
1.909999999999999920e+00,2.778222656250000089e-01,-1.045426025390625036e+01,-5.292993164062500533e-01
1.919999999999999929e+00,1.635798339843750115e+00,-1.016446289062499986e+01,5.364843750000000133e-01
1.929999999999999938e+00,8.095166015625000488e-01,-9.491462402343749716e+00,5.156477050781250071e+00
1.939999999999999947e+00,-3.027304687500000036e+00,-1.010937744140625050e+01,9.201665039062500995e+00
1.949999999999999956e+00,-4.483476562499999929e+00,-1.204455322265625128e+01,3.685935058593750036e+00
1.959999999999999964e+00,-4.610412597656250000e+00,-1.019559814453125135e+01,7.225773925781250107e+00
1.969999999999999973e+00,-1.633403320312500018e+00,-9.647138671875000071e+00,9.786049804687500853e+00
1.979999999999999982e+00,-2.126777343750000160e+00,-9.031618652343750497e+00,8.636440429687500142e+00
1.989999999999999991e+00,-2.133962402343750231e+00,-9.675878906250000355e+00,7.838898925781250249e+00
2.000000000000000000e+00,4.790039062500000416e-02,-1.220501953125000050e+01,6.689289550781250426e+00
2.009999999999999787e+00,3.159030761718750302e+00,-1.605621093750000128e+01,5.503754882812500249e+00
2.020000000000000018e+00,3.223696289062500053e+00,-1.828118408203125256e+01,4.969665527343750000e+00
2.029999999999999805e+00,1.762734375000000187e+00,-1.780936523437500085e+01,4.502636718749999822e+00
2.040000000000000036e+00,-9.148974609375000178e-01,-1.661425048828125028e+01,4.766088867187500355e+00
2.049999999999999822e+00,-8.454418945312500711e-01,-1.434137695312500149e+01,3.503913574218750160e+00
2.060000000000000053e+00,7.185058593750000278e-02,-1.154399414062500107e+01,5.281018066406250711e+00
2.069999999999999840e+00,-1.293310546875000022e-01,-1.013093261718750071e+01,5.666616210937500675e+00
2.080000000000000071e+00,5.029541015625000472e-02,-9.733359375000000924e+00,5.055886230468749964e+00
2.089999999999999858e+00,6.945556640625000222e-02,-1.014530273437500085e+01,4.533771972656250426e+00
2.100000000000000089e+00,-1.037043457031250115e+00,-1.031774414062500078e+01,4.464316406250000036e+00
2.109999999999999876e+00,-1.911225585937500027e+00,-1.064586181640625107e+01,3.623664550781250160e+00
2.120000000000000107e+00,-2.560275878906250302e+00,-1.002794677734375028e+01,2.471660156250000018e+00
2.129999999999999893e+00,-1.640588378906250089e+00,-9.350156250000001279e+00,1.822609863281250187e+00
2.140000000000000124e+00,-2.572250976562500124e+00,-8.430468750000001066e+00,1.781894531250000080e+00
2.149999999999999911e+00,-1.403481445312499964e+00,-8.600515136718749787e+00,2.277663574218750320e+00
2.160000000000000142e+00,-1.058598632812500107e+00,-7.575446777343750604e+00,2.433339843750000231e+00
2.169999999999999929e+00,-6.873706054687500622e-01,-7.690407714843749964e+00,2.275268554687500000e+00
2.180000000000000160e+00,1.293310546875000022e-01,-7.426955566406250320e+00,2.052531738281250018e+00
2.189999999999999947e+00,-1.077758789062500111e-01,-6.591093750000000639e+00,1.619033203125000098e+00
2.200000000000000178e+00,7.376660156250000044e-01,-6.255791015625000284e+00,1.722019042968750080e+00
2.209999999999999964e+00,7.185058593750000000e-01,-5.482199707031250036e+00,1.458566894531249991e+00
2.220000000000000195e+00,5.867797851562500666e-01,-5.101391601562499822e+00,1.389111328125000044e+00
2.229999999999999982e+00,6.035449218750000844e-01,-4.842729492187499929e+00,6.274951171875000622e-01
2.240000000000000213e+00,-4.430786132812500333e-01,-4.356540527343749858e+00,-2.634521484375000333e-01
2.250000000000000000e+00,1.437011718749999986e-02,-4.665498046875000249e+00,-1.939965820312500033e-01
2.259999999999999787e+00,-2.634521484375000333e-01,-5.446274414062500568e+00,1.676513671875000111e-01
2.270000000000000018e+00,-1.183139648437500080e+00,-5.767207031249999893e+00,7.065307617187500666e-01
2.279999999999999805e+00,-1.686093750000000169e+00,-6.416257324218750391e+00,5.915698242187500400e-01
2.290000000000000036e+00,-1.736389160156250000e+00,-7.000642089843750249e+00,1.437011718750000056e-01
2.299999999999999822e+00,-3.436853027343750089e+00,-7.517966308593750036e+00,5.077441406250000622e-01
2.310000000000000053e+00,-3.324287109375000160e+00,-8.387358398437500639e+00,-4.550537109375000361e-02
2.319999999999999840e+00,-3.889511718750000124e+00,-9.690249023437500497e+00,1.173559570312499994e-01
2.330000000000000071e+00,-4.998405761718750284e+00,-1.090691894531250128e+01,1.005908203125000094e-01
2.339999999999999858e+00,-4.639152832031250284e+00,-1.214753906249999993e+01,-4.550537109375000361e-02
2.350000000000000089e+00,-4.126618652343750249e+00,-1.242057128906250085e+01,2.275268554687500111e-01
2.359999999999999876e+00,-3.432062988281250338e+00,-1.174038574218750064e+01,-3.113525390625000028e-02
2.370000000000000107e+00,-2.529140625000000142e+00,-1.060754150390625128e+01,3.472778320312500111e-01
2.379999999999999893e+00,-1.774709472656250009e+00,-9.515412597656251137e+00,7.616162109375000933e-01
2.390000000000000124e+00,-1.058598632812500107e+00,-8.744216308593751208e+00,1.156794433593750115e+00
2.399999999999999911e+00,-3.544628906250000266e-01,-8.054450683593749716e+00,2.423759765625000284e+00
2.410000000000000142e+00,6.514453125000000400e-01,-8.143066406250000000e+00,4.057163085937499858e+00
2.419999999999999929e+00,3.039279785156250302e+00,-8.392148437500001279e+00,4.394860839843750533e+00
2.430000000000000160e+00,4.608017578125000568e+00,-9.587263183593750071e+00,4.823569335937500036e+00
2.439999999999999947e+00,5.027145996093750568e+00,-1.074405761718750085e+01,2.663261718750000284e+00
2.450000000000000178e+00,2.919528808593750302e+00,-1.194396240234375028e+01,-1.247805175781250053e+00
2.459999999999999964e+00,2.490820312500000022e-01,-1.145537841796875078e+01,-7.474855957031250497e+00
2.470000000000000195e+00,-1.101708984375000089e+00,-1.150806884765625071e+01,-4.696633300781249964e+00
2.479999999999999982e+00,-2.507585449218749929e+00,-1.094763427734375050e+01,9.101074218750000444e-01
2.490000000000000213e+00,-1.360371093749999982e+00,-1.039198974609375092e+01,3.266806640625000036e+00
2.500000000000000000e+00,1.221459960937500089e+00,-9.733359375000000924e+00,6.694079589843750178e+00
2.509999999999999787e+00,3.091970214843750231e+00,-9.307045898437500853e+00,1.194635742187500149e+01
2.520000000000000018e+00,8.435258789062499929e+00,-1.163739990234375021e+01,1.674597656250000099e+01
2.529999999999999805e+00,6.528823242187500320e+00,-1.174038574218750064e+01,7.692802734375000284e+00
2.540000000000000036e+00,3.870351562500000231e+00,-1.332349365234375149e+01,4.320615234375000391e+00
2.549999999999999822e+00,-3.520678710937500400e-01,-1.322050781250000107e+01,5.017565917968750178e+00
2.560000000000000053e+00,-2.550695800781249911e+00,-1.177631103515625099e+01,5.776787109375000284e+00
2.569999999999999840e+00,-3.302731933593749947e+00,-1.222417968750000128e+01,5.769602050781250213e+00
2.580000000000000071e+00,-3.911066894531250338e+00,-1.378812744140625135e+01,4.727768554687500568e+00
2.589999999999999858e+00,-3.709885253906250124e+00,-1.344803466796875036e+01,3.796105957031250089e+00
2.600000000000000089e+00,-2.253713378906250231e+00,-1.232716552734374993e+01,4.337380371093749964e+00
2.609999999999999876e+00,-9.987231445312499956e-01,-1.210203369140625007e+01,4.016447753906250639e+00
2.620000000000000107e+00,-1.628613281250000100e-01,-1.073926757812500021e+01,3.211721191406250231e+00
2.629999999999999893e+00,1.556762695312499944e-01,-1.017404296875000114e+01,2.177072753906250213e+00
2.640000000000000124e+00,2.059716796875000200e-01,-9.010063476562500284e+00,2.509980468750000249e+00
2.649999999999999911e+00,-3.113525390625000028e-02,-8.116721191406250924e+00,2.162702636718750071e+00
2.660000000000000142e+00,6.131250000000000311e-01,-7.422165527343750568e+00,4.323010253906249822e+00
2.669999999999999929e+00,2.229763183593750142e+00,-6.552773437499999964e+00,4.315825195312500639e+00
2.680000000000000160e+00,2.102827148437500071e+00,-7.616162109375000711e+00,2.476450195312500213e+00
2.689999999999999947e+00,2.361489257812499964e+00,-7.632927246093750284e+00,2.311193847656249911e+00
2.700000000000000178e+00,2.375859375000000107e+00,-7.494016113281250391e+00,2.064506835937500284e+00
2.709999999999999964e+00,1.827399902343750160e+00,-7.362290039062500568e+00,2.323168945312500178e+00
2.720000000000000195e+00,1.535207519531250009e+00,-7.525151367187500107e+00,1.836979980468750107e+00
2.729999999999999982e+00,1.913620605468750124e+00,-7.216193847656250604e+00,2.081271972656250302e+00
2.740000000000000213e+00,2.193837890625000231e+00,-7.546706542968750320e+00,1.329235839843750044e+00
2.750000000000000000e+00,2.311193847656249911e+00,-7.395820312500000604e+00,1.762734375000000187e+00
2.759999999999999787e+00,2.062111816406249964e+00,-7.391030273437499964e+00,1.360371093749999982e+00
2.770000000000000018e+00,1.805844726562500169e+00,-7.472460937500000178e+00,1.343605957031249964e+00
2.779999999999999805e+00,1.338815917968749991e+00,-7.276069335937500604e+00,1.508862304687500044e+00
2.790000000000000036e+00,5.676196289062500622e-01,-7.003037109375000568e+00,1.599873046874999982e+00
2.799999999999999822e+00,-3.616479492187500422e-01,-7.139553222656250142e+00,1.731599121093750027e+00
2.810000000000000053e+00,-1.645378417968750062e+00,-7.510781249999999964e+00,1.163979492187499964e+00
2.819999999999999840e+00,-2.442919921875000178e+00,-7.846083984375000320e+00,1.254990234375000124e+00
2.830000000000000071e+00,-3.046464843750000373e+00,-8.246052246093750426e+00,1.748364257812500044e+00
2.839999999999999858e+00,-3.470383300781250124e+00,-8.861572265625000000e+00,1.590292968750000036e+00
2.850000000000000089e+00,-3.693120117187500107e+00,-9.014853515625000924e+00,1.147214355468750169e+00
2.859999999999999876e+00,-3.681145019531250284e+00,-8.849597167968751066e+00,8.981323242187500000e-01
2.870000000000000107e+00,-3.079995117187499964e+00,-8.629255371093750071e+00,8.717871093750000355e-01
2.879999999999999893e+00,-2.421364746093749964e+00,-8.384963378906251208e+00,6.849755859375000755e-01
2.890000000000000124e+00,-2.313588867187500231e+00,-7.920329589843750462e+00,4.718188476562500400e-01
2.899999999999999911e+00,-2.373464355468750231e+00,-7.740703125000000462e+00,-2.155517578125000222e-01
2.910000000000000142e+00,-2.524350585937499947e+00,-7.127578125000000320e+00,-9.244775390625000755e-01
2.919999999999999929e+00,-2.651286621093750018e+00,-7.153923339843750284e+00,-4.215234375000000422e-01
2.930000000000000160e+00,-2.435734863281250107e+00,-7.163503417968750675e+00,3.353027343750000222e-01
2.939999999999999947e+00,-2.021396484375000302e+00,-7.276069335937500604e+00,2.320773925781250302e+00
2.950000000000000178e+00,-1.683698730468750071e+00,-7.740703125000000462e+00,2.703977050781249947e+00
2.959999999999999964e+00,-1.518442382812499991e+00,-8.404123535156250213e+00,3.120710449218750071e+00
2.970000000000000195e+00,-1.640588378906250089e+00,-9.280700683593750000e+00,2.881208496093750071e+00
2.979999999999999982e+00,-2.404599609374999947e+00,-9.886640625000000071e+00,2.404599609374999947e+00
2.990000000000000213e+00,-2.088457031249999929e+00,-1.106499023437500107e+01,1.171164550781250036e+00
3.000000000000000000e+00,-1.010698242187500151e+00,-1.160147460937499986e+01,3.209326171874999911e-01
3.009999999999999787e+00,-1.580712890625000089e-01,-1.136676269531250050e+01,-3.568579101562500133e-01
3.020000000000000018e+00,5.245092773437500799e-01,-1.045905029296875099e+01,-6.586303710937500000e-01
3.029999999999999805e+00,2.572250976562500124e+00,-1.018362304687500064e+01,1.329235839843750044e+00
3.040000000000000036e+00,-3.017724609375000422e-01,-8.885522460937499645e+00,4.780458984375000497e+00
3.049999999999999822e+00,-5.041516113281249822e+00,-1.005668701171875057e+01,9.663903808593749645e+00
3.060000000000000053e+00,-7.802973632812500782e+00,-1.178589111328125050e+01,5.084626464843750249e+00
3.069999999999999840e+00,-6.428232421875000213e+00,-1.249960693359374986e+01,9.596843261718751350e+00
3.080000000000000071e+00,-4.907395019531250568e+00,-1.094763427734375050e+01,6.183940429687500462e+00
3.089999999999999858e+00,-3.072810058593750338e+00,-7.905959472656250320e+00,4.900209960937500497e+00
3.100000000000000089e+00,-1.753154296875000018e+00,-7.642507324218750675e+00,6.686894531250000107e+00
3.109999999999999876e+00,2.778222656250000089e-01,-9.575288085937501137e+00,7.074887695312500391e+00
3.120000000000000107e+00,2.553090820312500231e+00,-1.284209472656250028e+01,8.646020507812499645e+00
3.129999999999999893e+00,3.094365234375000107e+00,-1.858056152343750256e+01,7.141948242187500462e+00
3.140000000000000124e+00,-3.113525390625000028e-02,-1.997206787109375270e+01,6.061794433593750142e+00
3.149999999999999911e+00,-2.265688476562500053e+00,-1.839135498046875128e+01,3.592529296875000000e+00
3.160000000000000142e+00,-1.901645507812500080e+00,-1.371627685546875064e+01,2.943479003906249947e+00
3.169999999999999929e+00,-8.861572265625000666e-02,-1.133323242187500135e+01,8.040080566406249574e+00
3.180000000000000160e+00,4.454736328125000200e-01,-9.690249023437500497e+00,4.725373535156250249e+00
3.189999999999999947e+00,9.101074218750000444e-01,-1.027223876953125092e+01,4.969665527343750000e+00
3.200000000000000178e+00,7.927514648437500311e-01,-1.055724609375000078e+01,4.430786132812500000e+00
3.209999999999999964e+00,8.669970703125000622e-01,-1.022194335937500043e+01,4.670288085937500000e+00
3.220000000000000195e+00,-1.916015625000000097e-02,-9.376501464843750355e+00,4.732558593750000320e+00
3.229999999999999982e+00,-9.843530273437500755e-01,-8.188571777343749858e+00,4.612807617187500320e+00
3.240000000000000213e+00,-1.204694824218750071e+00,-8.049660644531250853e+00,3.913461914062500213e+00
3.250000000000000000e+00,-1.034648437500000018e+00,-7.613767089843750391e+00,3.185375976562500266e+00
3.259999999999999787e+00,-6.634204101562500844e-01,-7.359895019531250249e+00,3.168610839843750249e+00
3.270000000000000018e+00,-6.801855468749999911e-01,-7.671247558593750071e+00,2.742297363281250178e+00
3.279999999999999805e+00,-3.832031250000000333e-01,-7.098837890625000036e+00,2.454895019531250000e+00
3.290000000000000036e+00,4.885839843750000022e-01,-7.079677734375000142e+00,2.282453613281250071e+00
3.299999999999999822e+00,1.104104003906249964e+00,-6.943161621093750568e+00,1.590292968750000036e+00
3.310000000000000053e+00,-5.340893554687500266e-01,-6.219865722656249929e+00,1.755549316406250115e+00
3.319999999999999840e+00,7.664062500000000389e-02,-5.740861816406249929e+00,1.350791015625000036e+00
3.330000000000000071e+00,-2.347119140624999989e-01,-5.609135742187500107e+00,1.197509765625000000e+00
3.339999999999999858e+00,-6.634204101562500844e-01,-5.300178222656250604e+00,7.903564453125000444e-01
3.350000000000000089e+00,-1.197509765625000000e+00,-5.098996582031250391e+00,3.424877929687500377e-01
3.359999999999999876e+00,-1.041833496093750089e+00,-5.199587402343750497e+00,6.418652343749999822e-01
3.370000000000000107e+00,-9.891430664062500488e-01,-5.635480957031250071e+00,8.382568359375000000e-01
3.379999999999999893e+00,-1.535207519531250009e+00,-5.968388671875000107e+00,7.185058593750000000e-01
3.390000000000000124e+00,-1.791474609375000027e+00,-7.067702636718750320e+00,-2.083666992187500067e-01
3.399999999999999911e+00,-1.360371093749999982e+00,-7.362290039062500568e+00,-1.020278320312500098e+00
3.410000000000000142e+00,-1.595083007812500009e+00,-7.872429199218750284e+00,-8.143066406250000222e-01
3.419999999999999929e+00,-1.379531250000000098e+00,-8.413703613281249716e+00,-4.933740234375000311e-01
3.430000000000000160e+00,-1.595083007812500009e+00,-8.976533203125001137e+00,-5.580395507812500044e-01
3.439999999999999947e+00,-1.954335937500000009e+00,-8.959768066406249787e+00,-1.226250000000000062e+00
3.450000000000000178e+00,-2.406994628906250266e+00,-9.256750488281250355e+00,-8.143066406250000500e-02
3.459999999999999964e+00,-2.083666992187500178e+00,-9.201665039062500995e+00,-1.939965820312500033e-01
3.470000000000000195e+00,-1.453776855468750018e+00,-9.244775390624999645e+00,-4.191284179687500000e-01
3.479999999999999982e+00,-1.398691406249999991e+00,-9.429191894531250284e+00,-2.155517578125000153e-02
3.490000000000000213e+00,-1.104104003906249964e+00,-9.184899902343749645e+00,1.159189453124999991e+00
3.500000000000000000e+00,-1.209484863281250044e+00,-8.090375976562500071e+00,2.002236328124999964e+00
3.509999999999999787e+00,-7.424560546875000333e-02,-8.502319335937500000e+00,4.655917968749999858e+00
3.520000000000000018e+00,1.506467285156250169e+00,-9.508227539062501066e+00,8.361013183593749787e+00
3.529999999999999805e+00,2.380649414062500302e+00,-9.304650878906249645e+00,5.463039550781250142e+00
3.540000000000000036e+00,2.371069335937499911e+00,-1.051174072265625092e+01,3.194956054687500213e+00
3.549999999999999822e+00,1.429826660156250151e+00,-1.104583007812500028e+01,-1.118474121093750107e+00
3.560000000000000053e+00,8.382568359375000555e-02,-1.106978027343749993e+01,-6.397097167968750497e+00
3.569999999999999840e+00,-1.360371093749999982e+00,-1.037522460937500135e+01,-4.172124023437500107e+00
3.580000000000000071e+00,-1.413061523437500133e+00,-9.618398437499999787e+00,7.448510742187500755e-01
3.589999999999999858e+00,2.184257812500000284e+00,-1.023391845703125114e+01,5.697751464843750391e+00
3.600000000000000089e+00,7.220983886718750355e+00,-1.256187744140625107e+01,1.202778808593749993e+01
3.609999999999999876e+00,1.104822509765624972e+01,-1.402283935546875071e+01,2.674997314453124986e+01
3.620000000000000107e+00,8.974138183593749929e+00,-1.165177001953125036e+01,4.445156250000000142e+00
3.629999999999999893e+00,8.435258789062499929e+00,-1.388153320312500050e+01,3.666774902343750142e+00
3.640000000000000124e+00,-7.568261718750000089e-01,-1.209484863281250000e+01,8.957373046875000133e-01
3.649999999999999911e+00,-2.126777343750000160e+00,-1.197509765625000000e+01,8.478369140625000577e-01
3.660000000000000142e+00,-4.466711425781250355e+00,-1.297621582031250043e+01,1.374501708984375092e+01
3.669999999999999929e+00,-5.453459472656250639e+00,-1.197509765625000000e+01,1.439885742187500028e+01
3.680000000000000160e+00,-6.193520507812499964e+00,-1.590292968750000036e+01,3.491938476562500338e+00
3.689999999999999947e+00,-4.126618652343750249e+00,-1.454016357421875050e+01,2.780617675781249964e+00
3.700000000000000178e+00,-2.193837890625000231e+00,-1.396056884765625128e+01,7.719147949218750249e+00
3.709999999999999964e+00,-1.604663085937499956e-01,-1.320613769531250092e+01,3.793710937500000213e+00
3.720000000000000195e+00,-6.658154296875000711e-01,-1.137873779296875121e+01,3.882326660156250053e+00
3.729999999999999982e+00,1.437011718749999986e-02,-1.060514648437500007e+01,2.402204589843750071e+00
3.740000000000000213e+00,3.185375976562500044e-01,-9.041198730468750000e+00,2.648891601562500142e+00
3.750000000000000000e+00,1.396296386718750115e+00,-7.731123046875000071e+00,3.690725097656250231e+00
3.759999999999999787e+00,2.019001464843749982e+00,-7.757468261718750036e+00,3.824846191406250373e+00
3.770000000000000018e+00,2.984194335937500053e+00,-6.969506835937500533e+00,4.334985351562500533e+00
3.779999999999999805e+00,2.847678222656250036e+00,-7.280859375000000355e+00,3.130290527343750018e+00
3.790000000000000036e+00,3.683540039062500160e+00,-7.644902343750000107e+00,3.099155273437500302e+00
3.799999999999999822e+00,3.700305175781250178e+00,-6.976691894531250604e+00,1.463356933593749964e+00
3.810000000000000053e+00,3.360212402343750071e+00,-7.412585449218750178e+00,2.145937500000000053e+00
3.819999999999999840e+00,2.677631835937499982e+00,-7.280859375000000355e+00,2.026186523437500053e+00
3.830000000000000071e+00,2.272873535156250124e+00,-7.127578125000000320e+00,1.607058105468750053e+00
3.839999999999999858e+00,2.624941406250000053e+00,-6.397097167968750497e+00,1.961520996093750080e+00
3.850000000000000089e+00,2.699187011718750195e+00,-6.068979492187500213e+00,1.937570800781249991e+00
3.859999999999999876e+00,1.995051269531250115e+00,-5.807922363281250000e+00,9.771679687500000044e-01
3.870000000000000107e+00,1.420246582031249982e+00,-5.731281738281250426e+00,1.444196777343750071e+00
3.879999999999999893e+00,8.646020507812500755e-01,-5.467829589843749893e+00,6.035449218750000844e-01
3.890000000000000124e+00,1.532812500000000078e-01,-5.654641113281249964e+00,8.526269531250000311e-01
3.899999999999999911e+00,-9.484277343750000533e-01,-5.611530761718750426e+00,1.013093261718750027e+00
3.910000000000000142e+00,-1.860930175781250195e+00,-6.059399414062500711e+00,6.131250000000000311e-01
3.919999999999999929e+00,-2.586621093750000266e+00,-6.437812500000000604e+00,7.161108398437500133e-01
3.930000000000000160e+00,-2.902763671875000284e+00,-6.926396484375000107e+00,3.760180664062500178e-01
3.939999999999999947e+00,-3.106340332031250373e+00,-7.347919921875000426e+00,3.951782226562500222e-01
3.950000000000000178e+00,-2.648891601562500142e+00,-7.925119628906250213e+00,6.394702148437499956e-01
3.959999999999999964e+00,-2.299218750000000089e+00,-8.696315917968750142e+00,8.981323242187500000e-01
3.970000000000000195e+00,-2.296823730468750213e+00,-9.307045898437500853e+00,1.211879882812500142e+00
3.979999999999999982e+00,-2.030976562500000249e+00,-9.963281249999999645e+00,1.154399414062500018e+00
3.990000000000000213e+00,-2.778222656250000089e+00,-1.004231689453125043e+01,4.933740234375000311e-01
4.000000000000000000e+00,-3.228486328125000249e+00,-9.582473144531251208e+00,3.448828125000000244e-01
4.009999999999999787e+00,-3.305126953125000266e+00,-8.566984863281250639e+00,8.238867187500000799e-01
4.019999999999999574e+00,-3.618874511718749964e+00,-7.635322265625000604e+00,1.084943847656250071e+00
4.030000000000000249e+00,-3.654799804687500320e+00,-7.417375488281250817e+00,1.281335449218750089e+00
4.040000000000000036e+00,-3.113525390625000000e+00,-7.587421875000000426e+00,1.834584960937500009e+00
4.049999999999999822e+00,-2.383044433593750178e+00,-7.702382812500000675e+00,1.899250488281250204e+00
4.059999999999999609e+00,-2.268083496093749929e+00,-8.085585937500001208e+00,2.383044433593750178e+00
4.070000000000000284e+00,-2.459685058593750195e+00,-9.211245117187500497e+00,1.963916015625000178e+00
4.080000000000000071e+00,-2.347119140625000266e+00,-1.065065185546874993e+01,9.867480468750000622e-01
4.089999999999999858e+00,-2.126777343750000160e+00,-1.144579833984375128e+01,1.820214843750000144e-01
4.099999999999999645e+00,-1.575922851562500115e+00,-1.140987304687500092e+01,-1.772314453125000133e-01
4.110000000000000320e+00,-6.083349609375000577e-01,-1.073926757812500021e+01,-2.969824218750000133e-01
4.120000000000000107e+00,1.566342773437500169e+00,-1.025068359375000071e+01,5.484594726562500577e-01
4.129999999999999893e+00,1.125659179687499956e+00,-9.692644042968749929e+00,1.839374999999999982e+00
4.139999999999999680e+00,-1.894460449218750009e+00,-9.139394531249999787e+00,6.104904785156250568e+00
4.150000000000000355e+00,-4.157753906249999964e+00,-1.045665527343749979e+01,5.649851074218750213e+00
4.160000000000000142e+00,-4.188889160156250568e+00,-1.142663818359375050e+01,7.304809570312500000e+00
4.169999999999999929e+00,-2.548300781250000036e+00,-1.066262695312500064e+01,6.643784179687500568e+00
4.179999999999999716e+00,-3.032094726562500231e+00,-1.075603271484374979e+01,8.521479492187500782e+00
4.190000000000000391e+00,-3.829636230468750124e+00,-1.148172363281249986e+01,7.139553222656250142e+00
4.200000000000000178e+00,-8.789721679687499956e-01,-1.298100585937500107e+01,7.810158691406249964e+00
4.209999999999999964e+00,3.633244628906250107e+00,-1.600591552734375256e+01,7.161108398437500355e+00
4.219999999999999751e+00,6.363566894531250462e+00,-2.029060546875000171e+01,7.094047851562500284e+00
4.230000000000000426e+00,7.992180175781250284e+00,-2.104503662109375028e+01,4.500241699218750391e+00
4.240000000000000213e+00,4.100273437500000284e+00,-1.750280273437500256e+01,4.093088378906250213e+00
4.250000000000000000e+00,2.464475097656249947e+00,-1.488744140625000156e+01,4.124223632812499929e+00
4.259999999999999787e+00,-2.921923828125000400e-01,-1.085901855468750021e+01,4.418811035156250178e+00
4.269999999999999574e+00,-1.916015625000000167e-01,-9.668693847656250284e+00,3.185375976562500266e+00
4.280000000000000249e+00,-1.334025878906250018e+00,-8.856782226562501137e+00,3.769760742187500124e+00
4.290000000000000036e+00,-1.604663085937500178e+00,-9.026828613281249858e+00,3.757785644531250302e+00
4.299999999999999822e+00,-1.822609863281250187e+00,-9.014853515625000924e+00,4.140988769531250391e+00
4.309999999999999609e+00,-2.038161621093750320e+00,-9.582473144531251208e+00,3.278781738281250302e+00
4.320000000000000284e+00,-3.427272949218750142e+00,-9.472302246093750711e+00,2.885998535156250266e+00
4.330000000000000071e+00,-4.061953125000000497e+00,-8.226892089843749645e+00,2.033371582031250124e+00
4.339999999999999858e+00,-3.779340820312500071e+00,-7.606582031250000320e+00,1.755549316406250115e+00
4.349999999999999645e+00,-3.230881347656250124e+00,-6.859335937500000036e+00,2.160307617187500195e+00
4.360000000000000320e+00,-2.524350585937499947e+00,-7.211403808593749964e+00,3.084785156250000160e+00
4.370000000000000107e+00,-1.434616699218750124e+00,-7.300019531250000249e+00,3.338657226562500302e+00
4.379999999999999893e+00,-6.730004882812500311e-01,-7.553891601562500391e+00,2.224973144531249947e+00
4.389999999999999680e+00,2.490820312500000022e-01,-7.680827636718750462e+00,4.287084960937500022e-01
4.400000000000000355e+00,-6.921606445312500355e-01,-6.935976562500000497e+00,1.070573730468750151e+00
4.410000000000000142e+00,9.580078125000000833e-02,-6.301296386718750142e+00,2.095642089843750000e+00
4.419999999999999929e+00,5.221142578124999822e-01,-5.412744140625000533e+00,1.913620605468750124e+00
4.429999999999999716e+00,7.065307617187500666e-01,-5.194797363281249858e+00,8.813671875000000933e-01
4.440000000000000391e+00,1.130449218750000151e+00,-5.194797363281249858e+00,-1.053808593750000105e-01
4.450000000000000178e+00,5.053491210937500755e-01,-5.175637207031249964e+00,1.676513671875000042e-02
4.459999999999999964e+00,9.819580078125000888e-01,-5.676196289062500178e+00,9.101074218750000722e-02
4.469999999999999751e+00,5.652246093750000755e-01,-5.613925781249999858e+00,3.472778320312500111e-01
4.480000000000000426e+00,-5.149291992187500222e-01,-5.745651855468750568e+00,5.269042968750000666e-01
4.490000000000000213e+00,-1.257385253906250000e+00,-6.255791015625000284e+00,-2.826123046875000377e-01
4.500000000000000000e+00,-2.038161621093750320e+00,-6.524033203125000568e+00,-1.175954589843750009e+00
4.509999999999999787e+00,-2.560275878906250302e+00,-7.307204589843750320e+00,-1.825004882812500062e+00
4.519999999999999574e+00,-2.545905761718750160e+00,-8.375383300781249929e+00,-1.944755859375000062e+00
4.530000000000000249e+00,-3.132685546875000338e+00,-9.556127929687500355e+00,-1.551972656250000027e+00
4.540000000000000036e+00,-3.367397460937500142e+00,-1.105541015624999979e+01,-8.502319335937500444e-01
4.549999999999999822e+00,-3.681145019531250284e+00,-1.222657470703125071e+01,-4.502636718750000488e-01
4.559999999999999609e+00,-3.513493652343750107e+00,-1.306243652343750128e+01,6.274951171875000622e-01
4.570000000000000284e+00,-3.233276367187500000e+00,-1.342887451171875135e+01,1.199904785156250098e+00
4.580000000000000071e+00,-3.345842285156250373e+00,-1.293789550781250064e+01,1.334025878906250018e+00
4.589999999999999858e+00,-2.960244140624999964e+00,-1.139071289062500014e+01,2.205812988281250053e+00
4.599999999999999645e+00,-2.536325683593750213e+00,-9.493857421875000924e+00,3.515888671874999982e+00
4.610000000000000320e+00,-1.405876464843750062e+00,-8.004155273437500995e+00,5.321733398437499929e+00
4.620000000000000107e+00,-2.993774414062500000e-01,-7.376660156250000711e+00,5.872587890625000639e+00
4.629999999999999893e+00,2.093247070312500124e+00,-8.674760742187499929e+00,4.701423339843750604e+00
4.639999999999999680e+00,1.657353515625000107e+00,-8.943002929687500213e+00,2.634521484375000264e-02
4.650000000000000355e+00,7.017407226562499822e-01,-1.047102539062499993e+01,-6.428232421875000213e+00
4.660000000000000142e+00,4.311035156250000305e-02,-1.033211425781250092e+01,-4.761298828125000604e+00
4.669999999999999929e+00,1.762734375000000187e+00,-9.357341308593751350e+00,2.126777343750000160e+00
4.679999999999999716e+00,4.550537109375000000e+00,-1.017164794921874993e+01,7.711962890625000178e+00
4.690000000000000391e+00,1.209484863281250000e+01,-1.248523681640625149e+01,2.817261474609374972e+01
4.700000000000000178e+00,6.907236328125000213e+00,-1.143382324218750057e+01,1.208047851562499986e+01
4.709999999999999964e+00,6.272556152343750746e+00,-1.354862548828125135e+01,3.204536132812500160e+00
4.719999999999999751e+00,7.400610351562499911e-01,-1.027463378906250036e+01,-7.280859375000000577e-01
4.730000000000000426e+00,-2.430944824218749911e+00,-1.054287597656250064e+01,2.452500000000000124e+00
4.740000000000000213e+00,-3.360212402343750071e+00,-1.092128906250000142e+01,1.108654541015625128e+01
4.750000000000000000e+00,-4.540957031250000497e+00,-9.833950195312500142e+00,1.240620117187500071e+01
4.759999999999999787e+00,-5.118156738281250284e+00,-1.387913818359375107e+01,4.320615234375000391e+00
4.769999999999999574e+00,-4.332590332031250213e+00,-1.478685058593750057e+01,3.051254882812500124e+00
4.780000000000000249e+00,-2.040556640625000195e+00,-1.372825195312500135e+01,2.742297363281250178e+00
4.790000000000000036e+00,-5.484594726562500577e-01,-1.318697753906250014e+01,3.707490234375000249e+00
4.799999999999999822e+00,-4.430786132812500333e-01,-1.257145751953125057e+01,4.708608398437500675e+00
4.809999999999999609e+00,-3.975732421875000089e-01,-1.135239257812500036e+01,3.805686035156250036e+00
4.820000000000000284e+00,1.460961914062500200e-01,-1.038001464843750021e+01,2.186652832031250160e+00
4.830000000000000071e+00,1.508862304687500211e-01,-9.750124511718750497e+00,1.834584960937500009e+00
4.839999999999999858e+00,1.968706054687500151e+00,-8.004155273437500995e+00,2.948269042968750142e+00
4.849999999999999645e+00,1.729204101562500151e+00,-7.199428710937500142e+00,3.324287109375000160e+00
4.860000000000000320e+00,2.217788085937500320e+00,-7.041357421875000355e+00,4.505031738281250142e+00
4.870000000000000107e+00,2.699187011718750195e+00,-7.573051757812500284e+00,1.482517089843750080e+00
4.879999999999999893e+00,2.874023437500000000e+00,-7.510781249999999964e+00,2.519560546875000195e+00
4.889999999999999680e+00,2.332749023437500124e+00,-7.774233398437500497e+00,1.413061523437500133e+00
4.900000000000000355e+00,2.301613769531249964e+00,-7.134763183593750391e+00,2.629731445312500249e+00
4.910000000000000142e+00,2.593806152343750338e+00,-6.818620605468749929e+00,2.490820312499999911e+00
4.919999999999999929e+00,2.684816894531250053e+00,-7.352709960937500178e+00,1.537602539062500107e+00
4.929999999999999716e+00,2.581831054687500071e+00,-7.479645996093750249e+00,8.693920898437500488e-01
4.940000000000000391e+00,2.785407714843750160e+00,-6.641389160156250249e+00,2.596201171875000213e+00
4.950000000000000178e+00,2.787802734375000036e+00,-6.940766601562500249e+00,1.575922851562500115e+00
4.959999999999999964e+00,2.086062011718750053e+00,-6.794670410156250284e+00,1.041833496093750089e+00
4.969999999999999751e+00,1.281335449218750089e+00,-6.452182617187500746e+00,1.566342773437500169e+00
4.980000000000000426e+00,-6.227050781250000056e-02,-6.749165039062500426e+00,9.723779296875000311e-01
4.990000000000000213e+00,-1.065783691406249956e+00,-7.096442871093750604e+00,8.238867187500000799e-01
5.000000000000000000e+00,-2.490820312499999911e+00,-8.205336914062501208e+00,8.813671875000000933e-01
5.009999999999999787e+00,-2.244133300781250284e+00,-8.109536132812500853e+00,1.499282226562500098e+00
5.019999999999999574e+00,-2.993774414062500000e+00,-9.026828613281249858e+00,3.760180664062500178e-01
5.030000000000000249e+00,-3.705095214843750373e+00,-9.431586914062499716e+00,1.724414062500000122e-01
5.040000000000000036e+00,-4.045187988281250036e+00,-9.244775390624999645e+00,5.508544921875000583e-02
5.049999999999999822e+00,-3.956572265625000195e+00,-8.691525878906251279e+00,2.706372070312499933e-01
5.059999999999999609e+00,-3.582949218750000053e+00,-8.332272949218751279e+00,2.634521484375000333e-01
5.070000000000000284e+00,-3.743415527343750160e+00,-8.279582519531249574e+00,-3.113525390625000028e-02
5.080000000000000071e+00,-3.745810546875000036e+00,-7.889194335937500746e+00,-4.406835937500000466e-01
5.089999999999999858e+00,-3.956572265625000195e+00,-6.682104492187500355e+00,-4.502636718750000488e-01
5.099999999999999645e+00,-3.372187500000000338e+00,-6.126459960937499893e+00,2.514770507812499889e-01
5.110000000000000320e+00,-3.194956054687500213e+00,-6.021079101562500036e+00,1.638193359374999991e+00
5.120000000000000107e+00,-3.388952636718750355e+00,-6.471342773437500639e+00,2.672841796875000231e+00
5.129999999999999893e+00,-3.065625000000000266e+00,-7.640112304687500355e+00,2.584226074218749947e+00
5.139999999999999680e+00,-2.387834472656249929e+00,-8.605305175781250426e+00,3.106340332031250373e+00
5.150000000000000355e+00,-1.511257324218750142e+00,-9.764494628906250639e+00,2.624941406250000053e+00
5.160000000000000142e+00,-9.627978515625000844e-01,-1.140987304687500092e+01,2.112407226562500018e+00
5.169999999999999929e+00,-6.993457031249999956e-01,-1.252355712890625128e+01,3.329077148437500355e-01
5.179999999999999716e+00,-8.214916992187500933e-01,-1.311752197265625064e+01,1.149609374999999989e-01
5.190000000000000391e+00,1.860930175781250195e+00,-1.250918701171875114e+01,-2.579436035156250195e+00
5.200000000000000178e+00,1.135239257812500124e+00,-1.226250000000000107e+01,-3.305126953125000266e+00
5.209999999999999964e+00,2.308798828125000036e+00,-1.216669921875000071e+01,-3.388952636718750355e+00
5.219999999999999751e+00,-2.596201171875000213e+00,-9.738149414062499787e+00,4.014052734375000320e+00
5.230000000000000426e+00,-1.789079589843750151e+00,-9.261540527343750995e+00,4.924160156250000142e+00
5.240000000000000213e+00,-3.839216308593750071e+00,-8.669970703125001066e+00,3.839216308593750071e+00
5.250000000000000000e+00,-3.341052246093750178e+00,-7.369475097656250639e+00,8.698710937499999574e+00
5.259999999999999787e+00,-7.096442871093750604e+00,-8.873547363281250711e+00,1.174278076171875007e+01
5.269999999999999574e+00,-8.739426269531250568e+00,-1.033450927734375036e+01,7.537126464843750817e+00
5.280000000000000249e+00,-5.158872070312500391e+00,-1.150088378906250064e+01,4.258344726562500071e+00
5.290000000000000036e+00,-2.222578125000000071e+00,-1.311512695312500121e+01,7.668852539062500639e+00
5.299999999999999822e+00,1.932780761718750018e+00,-1.320853271484375036e+01,7.783813476562500000e+00
5.309999999999999609e+00,5.144501953125000249e+00,-1.832668945312500242e+01,7.874824218750000604e+00
5.320000000000000284e+00,7.005432128906250000e+00,-2.184976318359375114e+01,7.417375488281250817e+00
5.330000000000000071e+00,3.396137695312499982e+00,-1.790995605468750185e+01,4.921765136718749822e+00
5.339999999999999858e+00,8.526269531250000311e-01,-1.459764404296875107e+01,4.126618652343750249e+00
5.349999999999999645e+00,-4.334985351562500311e-01,-1.123503662109374979e+01,2.996169433593750320e+00
5.360000000000000320e+00,-4.550537109375000222e-01,-9.616003417968750355e+00,3.345842285156250373e+00
5.370000000000000107e+00,-3.209326171874999911e-01,-8.758586425781249574e+00,3.317102050781250089e+00
5.379999999999999893e+00,-7.688012695312500533e-01,-8.758586425781249574e+00,2.998564453125000195e+00
5.389999999999999680e+00,-1.786684570312500053e+00,-8.679550781250000568e+00,3.381767578125000284e+00
5.400000000000000355e+00,-2.629731445312500249e+00,-8.413703613281249716e+00,4.466711425781250355e+00
5.410000000000000142e+00,-3.570974121093750231e+00,-7.769443359375000746e+00,4.358935546875000178e+00
5.419999999999999929e+00,-3.920646972656250284e+00,-7.041357421875000355e+00,4.358935546875000178e+00
5.429999999999999716e+00,-2.926713867187499929e+00,-7.000642089843750249e+00,3.721860351562500391e+00
5.440000000000000391e+00,-1.781894531250000080e+00,-6.909631347656250533e+00,3.068020019531250142e+00
5.450000000000000178e+00,-1.015488281250000124e+00,-7.144343261718750782e+00,3.381767578125000284e+00
5.459999999999999964e+00,-2.395019531250000000e-01,-7.637717285156250036e+00,1.789079589843750151e+00
5.469999999999999751e+00,-1.580712890625000089e-01,-7.498806152343750142e+00,9.987231445312499956e-01
5.480000000000000426e+00,5.029541015625000472e-02,-7.448510742187500533e+00,6.825805664062500888e-01
5.490000000000000213e+00,1.700463867187499978e-01,-6.571933593750000746e+00,5.053491210937500755e-01
5.500000000000000000e+00,1.652563476562499967e-01,-5.625900878906250568e+00,1.386716308593750169e+00
5.509999999999999787e+00,-2.275268554687500111e-01,-5.295388183593749964e+00,1.056203613281250009e+00
5.519999999999999574e+00,-9.580078125000000486e-03,-5.130131835937500107e+00,9.987231445312499956e-01
5.530000000000000249e+00,-5.771997070312500089e-01,-5.573210449218750639e+00,8.286767578125000533e-01
5.540000000000000036e+00,1.556762695312499944e-01,-6.011499023437500533e+00,3.041674804687500289e-01
5.549999999999999822e+00,-1.077758789062500111e-01,-5.501359863281249929e+00,1.413061523437500189e-01
5.559999999999999609e+00,-8.143066406250000500e-02,-5.403164062500000142e+00,1.341210937500000089e+00
5.570000000000000284e+00,-3.760180664062500178e-01,-5.580395507812500711e+00,1.683698730468750071e+00
5.580000000000000071e+00,-1.137634277343750000e+00,-6.219865722656249929e+00,9.699829101562500444e-01
5.589999999999999858e+00,-8.526269531250000311e-01,-7.026987304687500213e+00,-8.574169921875000044e-01
5.599999999999999645e+00,-1.386716308593750169e+00,-7.666457519531250320e+00,-1.357976074218750107e+00
5.610000000000000320e+00,-1.575922851562500115e+00,-8.291557617187500284e+00,-1.211879882812500142e+00
5.620000000000000107e+00,-1.767524414062500160e+00,-9.089099121093751066e+00,-5.580395507812500044e-01
5.629999999999999893e+00,-1.968706054687500151e+00,-9.896220703125001350e+00,-2.131567382812500078e-01
5.639999999999999680e+00,-2.392624511718750124e+00,-1.064346679687499986e+01,1.508862304687500211e-01
5.650000000000000355e+00,-1.537602539062500107e+00,-1.180744628906250071e+01,6.131250000000000311e-01
5.660000000000000142e+00,-7.041357421875000799e-01,-1.229842529296875142e+01,1.195114746093750124e+00
5.669999999999999929e+00,-2.371069335937500133e-01,-1.206371337890625028e+01,2.186652832031250160e+00
5.679999999999999716e+00,1.916015625000000097e-02,-1.098595458984375028e+01,3.216511230468749982e+00
5.690000000000000391e+00,4.790039062500000000e-01,-1.019080810546875071e+01,4.996010742187499964e+00
5.700000000000000178e+00,1.254990234375000124e+00,-9.606423339843750853e+00,6.207890625000000107e+00
5.709999999999999964e+00,1.523232421875000187e+00,-9.654323730468750142e+00,5.048701171874999893e+00
5.719999999999999751e+00,1.484912109375000178e+00,-1.028900390625000050e+01,1.566342773437500169e+00
5.730000000000000426e+00,4.957690429687500178e-01,-1.062909667968749972e+01,-3.815266113281249982e+00
5.740000000000000213e+00,-6.849755859375000755e-01,-1.105301513671875036e+01,-7.266489257812500213e+00
5.750000000000000000e+00,-1.154399414062500018e+00,-1.080632812500000028e+01,-2.996169433593750320e+00
5.759999999999999787e+00,-1.125659179687500122e-01,-1.115600097656250078e+01,1.868115234375000044e+00
5.769999999999999574e+00,8.214916992187500933e-01,-1.130449218750000107e+01,3.266806640625000036e+00
5.780000000000000249e+00,3.295546875000000320e+00,-1.195114746093750036e+01,5.051096191406250213e+00
5.790000000000000036e+00,4.301455078125000497e+00,-1.392224853515625149e+01,1.637474853515625028e+01
5.799999999999999822e+00,9.192084960937499716e+00,-1.233674560546875121e+01,1.950024902343750099e+01
5.809999999999999609e+00,5.369633789062500107e+00,-1.040156982421875043e+01,4.454736328125000533e+00
5.820000000000000284e+00,5.292993164062500533e+00,-1.139071289062500014e+01,2.818937988281250195e+00
5.830000000000000071e+00,-7.688012695312500533e-01,-9.642348632812501208e+00,1.904040527343750178e+00
5.839999999999999858e+00,-2.090852050781250249e+00,-9.211245117187500497e+00,8.167016601562499645e+00
5.849999999999999645e+00,-2.301613769531249964e+00,-9.060358886718750782e+00,1.116558105468750028e+01
5.860000000000000320e+00,-3.197351074218750089e+00,-1.309836181640624986e+01,3.774550781250000320e+00
5.870000000000000107e+00,-3.913461914062500213e+00,-1.474613525390625135e+01,3.994892578124999982e+00
5.879999999999999893e+00,-3.032094726562500231e+00,-1.421204589843750021e+01,3.963757324218750266e+00
5.889999999999999680e+00,-2.038161621093750320e+00,-1.449944824218750128e+01,3.990102539062500231e+00
5.900000000000000355e+00,-1.034648437500000018e+00,-1.240380615234375128e+01,3.137475585937500089e+00
5.910000000000000142e+00,-8.143066406250000222e-01,-1.010458740234374986e+01,5.331313476562500320e+00
5.919999999999999929e+00,6.203100585937499911e-01,-8.978928222656250568e+00,2.002236328124999964e+00
5.929999999999999716e+00,8.382568359375000000e-01,-8.202941894531250000e+00,2.598596191406250089e+00
5.940000000000000391e+00,1.923200683593750071e+00,-6.260581054687500036e+00,4.837939453125000178e+00
5.950000000000000178e+00,2.131567382812499911e+00,-7.328759765625000533e+00,4.210444335937499893e+00
5.959999999999999964e+00,2.871628417968750124e+00,-8.226892089843749645e+00,2.411784667968750018e+00
5.969999999999999751e+00,3.367397460937500142e+00,-7.438930664062500142e+00,2.747087402343749929e+00
5.980000000000000426e+00,2.878813476562500195e+00,-8.358618164062500355e+00,1.815424804687500115e+00
5.990000000000000213e+00,2.095642089843750000e+00,-8.600515136718749787e+00,1.805844726562500169e+00
6.000000000000000000e+00,1.781894531250000080e+00,-8.578959960937499574e+00,1.825004882812500062e+00
6.009999999999999787e+00,1.968706054687500151e+00,-8.624465332031251208e+00,1.168769531250000160e+00
6.019999999999999574e+00,1.923200683593750071e+00,-8.346643066406249645e+00,1.118474121093750107e+00
6.030000000000000249e+00,2.033371582031250124e+00,-7.855664062500000711e+00,1.180744628906249982e+00
6.040000000000000036e+00,1.650168457031250036e+00,-7.987390136718750533e+00,1.005908203124999956e+00
6.049999999999999822e+00,1.252595214843750027e+00,-7.070097656250000639e+00,1.765129394531250062e+00
6.059999999999999609e+00,1.197509765625000000e+00,-7.343129882812500675e+00,8.837622070312500799e-01
6.070000000000000284e+00,2.969824218750000133e-01,-6.562353515625000355e+00,7.065307617187500666e-01
6.080000000000000071e+00,1.676513671875000111e-01,-6.579118652343749929e+00,1.243015136718750080e+00
6.089999999999999858e+00,-8.358618164062500133e-01,-6.864125976562500675e+00,1.329235839843750044e+00
6.099999999999999645e+00,-1.789079589843750151e+00,-7.158713378906250036e+00,1.523232421875000187e+00
6.110000000000000320e+00,-2.471660156250000018e+00,-7.575446777343750604e+00,9.939331054687500222e-01
6.120000000000000107e+00,-2.902763671875000284e+00,-7.905959472656250320e+00,9.268725585937500622e-01
6.129999999999999893e+00,-3.221301269531250178e+00,-8.095166015625000711e+00,1.353186035156250133e+00
6.139999999999999680e+00,-3.156635742187499982e+00,-8.648415527343750853e+00,9.053173828125000711e-01
6.150000000000000355e+00,-3.015329589843750213e+00,-8.804091796875001208e+00,3.305126953124999933e-01
6.160000000000000142e+00,-2.811752929687500124e+00,-8.885522460937499645e+00,-4.790039062500000416e-02
6.169999999999999929e+00,-2.759062500000000195e+00,-8.440048828125000568e+00,-4.334985351562500311e-01
6.179999999999999716e+00,-2.797382812499999982e+00,-7.836503906250000817e+00,-3.472778320312500111e-01
6.190000000000000391e+00,-3.254831542968750213e+00,-7.300019531250000249e+00,-1.892065429687500022e-01
6.200000000000000178e+00,-3.489543457031250018e+00,-6.801855468750000355e+00,4.909790039062500444e-01
6.209999999999999964e+00,-3.417692871093750195e+00,-6.878496093749999929e+00,9.388476562499999956e-01
6.219999999999999751e+00,-3.444038085937500160e+00,-7.141948242187500462e+00,2.016606445312500107e+00
6.230000000000000426e+00,-3.034489746093750107e+00,-7.664062500000000000e+00,1.750759277343750142e+00
6.240000000000000213e+00,-2.349514160156250142e+00,-7.917934570312500142e+00,2.129172363281250036e+00
6.250000000000000000e+00,-2.021396484375000302e+00,-8.078400878906251137e+00,2.129172363281250036e+00
6.259999999999999787e+00,-2.093247070312500124e+00,-8.966953124999999858e+00,1.801054687500000195e+00
6.269999999999999574e+00,-1.817819824218749991e+00,-9.905800781250000853e+00,6.993457031249999956e-01
6.280000000000000249e+00,-8.741821289062500222e-01,-1.032492919921875085e+01,-4.191284179687500000e-01
6.290000000000000036e+00,-2.179467773437500089e-01,-1.000878662109375128e+01,-5.724096679687500355e-01
6.299999999999999822e+00,8.646020507812500755e-01,-9.616003417968750355e+00,4.454736328125000200e-01
6.309999999999999609e+00,1.896855468750000107e+00,-8.823251953125000213e+00,1.535207519531250009e+00
6.320000000000000284e+00,-2.126777343750000160e+00,-8.396938476562500142e+00,5.621110839843749929e+00
6.330000000000000071e+00,-4.387675781250000462e+00,-9.498647460937499787e+00,5.194797363281249858e+00
6.339999999999999858e+00,-4.907395019531250568e+00,-1.027942382812500099e+01,9.002878417968750213e+00
6.349999999999999645e+00,-5.290598144531250213e+00,-1.195833251953125043e+01,1.038240966796874964e+01
6.360000000000000320e+00,-6.598278808593750711e+00,-1.188408691406250028e+01,6.531218261718750639e+00
6.370000000000000107e+00,-3.475173339843750320e+00,-1.174757080078125071e+01,6.502478027343750355e+00
6.379999999999999893e+00,1.202299804687499973e+00,-1.506227783203125092e+01,7.795788574218750711e+00
6.389999999999999680e+00,4.294270019531250426e+00,-1.664059570312500114e+01,6.047424316406250000e+00
6.400000000000000355e+00,8.059240722656250355e+00,-1.995530273437499957e+01,6.646179199218750000e+00
6.410000000000000142e+00,5.645061035156250462e+00,-1.721300537109375028e+01,5.194797363281249858e+00
6.419999999999999929e+00,2.349514160156250142e+00,-1.466230957031249993e+01,5.793552246093749858e+00
6.429999999999999716e+00,-2.179467773437500089e-01,-1.364203125000000050e+01,4.873864746093750533e+00
6.440000000000000391e+00,-1.171164550781250036e+00,-1.132604736328125128e+01,4.368515625000000568e+00
6.450000000000000178e+00,-8.478369140625000577e-01,-9.831555175781250711e+00,5.000800781250000604e+00
6.459999999999999964e+00,-8.382568359375000000e-01,-9.778864746093750782e+00,4.823569335937500036e+00
6.469999999999999751e+00,-7.352709960937500178e-01,-9.939331054687500000e+00,4.663103027343749929e+00
6.480000000000000426e+00,-1.046623535156250062e+00,-1.052371582031249986e+01,4.576882324218749964e+00
6.490000000000000213e+00,-2.030976562500000249e+00,-1.129012207031250092e+01,3.659589843750000071e+00
6.500000000000000000e+00,-2.150727539062500249e+00,-1.101469482421875057e+01,2.938688964843750195e+00
6.509999999999999787e+00,-4.246369628906250249e+00,-9.117839355468751350e+00,2.313588867187500231e+00
6.519999999999999574e+00,-3.448828125000000355e+00,-8.614885253906249929e+00,1.357976074218750107e+00
6.530000000000000249e+00,-3.185375976562500266e+00,-7.961044921875000568e+00,1.463356933593749964e+00
6.540000000000000036e+00,-2.332749023437500124e+00,-7.922724609375000782e+00,2.663261718750000284e+00
6.549999999999999822e+00,-1.556762695312500000e+00,-7.462880859375000675e+00,2.646496582031250266e+00
6.559999999999999609e+00,-7.328759765625000311e-01,-7.362290039062500568e+00,2.672841796875000231e+00
6.570000000000000284e+00,-6.227050781249999778e-01,-7.709567871093750746e+00,2.292033691406250018e+00
6.580000000000000071e+00,-8.382568359375000555e-02,-8.279582519531249574e+00,1.745969238281250169e+00
6.589999999999999858e+00,9.580078125000000486e-03,-7.019802246093750142e+00,1.214274902343750018e+00
6.599999999999999645e+00,3.353027343750000222e-01,-6.183940429687500462e+00,4.574487304687500089e-01
6.610000000000000320e+00,6.849755859375000755e-01,-5.043911132812500142e+00,7.161108398437500133e-01
6.620000000000000107e+00,6.155200195312500178e-01,-4.598437500000000178e+00,9.915380859375000355e-01
6.629999999999999893e+00,3.065625000000000155e-01,-4.667893066406250568e+00,1.231040039062500036e+00
6.639999999999999680e+00,1.652563476562499967e-01,-5.297783203125000284e+00,9.819580078125000888e-01
6.650000000000000355e+00,-2.945874023437500266e-01,-5.616320800781250178e+00,5.221142578124999822e-01
6.660000000000000142e+00,-1.049018554687500160e+00,-5.836662597656250284e+00,3.496728515624999978e-01
6.669999999999999929e+00,-1.666933593750000053e+00,-6.009104003906250213e+00,5.029541015625000472e-02
6.679999999999999716e+00,-2.083666992187500178e+00,-5.930068359375000320e+00,-4.334985351562500311e-01
6.690000000000000391e+00,-2.212998046875000124e+00,-6.624624023437500675e+00,-1.008303222656250053e+00
6.700000000000000178e+00,-2.114802246093749893e+00,-7.534731445312500497e+00,-1.472937011718750133e+00
6.709999999999999964e+00,-2.299218750000000089e+00,-8.293952636718749716e+00,-1.743574218750000071e+00
6.719999999999999751e+00,-2.294428710937500338e+00,-9.388476562500001066e+00,-1.262175292968749973e+00
6.730000000000000426e+00,-2.133962402343750231e+00,-1.029618896484375057e+01,-3.017724609375000422e-01
6.740000000000000213e+00,-1.528022460937500160e+00,-1.103625000000000078e+01,3.113525390624999889e-01
6.750000000000000000e+00,-1.187929687500000053e+00,-1.146256347656250085e+01,7.113208007812500400e-01
6.759999999999999787e+00,-1.271755371093750142e+00,-1.139071289062500014e+01,1.432221679687500027e+00
6.769999999999999574e+00,-1.844165039062500178e+00,-1.047342041015625114e+01,2.581831054687500071e+00
6.780000000000000249e+00,-9.556127929687500133e-01,-1.060993652343750071e+01,4.591252441406250107e+00
6.790000000000000036e+00,-8.861572265625000666e-01,-9.948911132812501279e+00,5.297783203125000284e+00
6.799999999999999822e+00,4.023632812500000377e-01,-1.003992187500000099e+01,6.327641601562500107e+00
6.809999999999999609e+00,8.717871093750000355e-01,-9.510622558593750497e+00,4.191284179687500000e+00
6.820000000000000284e+00,9.244775390625000755e-01,-9.544152832031249645e+00,2.347119140624999989e-01
6.830000000000000071e+00,3.640429687500000289e-01,-1.014051269531250021e+01,-4.457131347656249964e+00
6.839999999999999858e+00,5.316943359375000400e-01,-1.035606445312500057e+01,-7.436535644531250711e+00
6.849999999999999645e+00,-4.167333984375000133e-01,-1.023631347656250057e+01,-2.133962402343750231e+00
6.860000000000000320e+00,-3.688330078125000022e-01,-1.002555175781250085e+01,3.053649902343750000e+00
6.870000000000000107e+00,1.060993652343749982e+00,-1.033929931640625099e+01,6.981481933593750355e+00
6.879999999999999893e+00,2.962639160156250284e+00,-1.110331054687500085e+01,1.235351074218750078e+01
6.889999999999999680e+00,9.469907226562501279e+00,-1.257624755859375121e+01,1.592448486328125057e+01
6.900000000000000355e+00,6.133645019531249964e+00,-1.397254394531250021e+01,4.064348144531249929e+00
6.910000000000000142e+00,2.730322265625000355e+00,-1.258582763671875071e+01,1.705253906250000062e+00
6.919999999999999929e+00,-4.172124023437500107e+00,-1.198467773437500128e+01,9.422006835937500213e+00
6.929999999999999716e+00,-2.859653320312500302e+00,-9.359736328125000782e+00,1.110091552734375142e+01
6.940000000000000391e+00,-2.512375488281250124e+00,-1.098834960937499972e+01,4.234394531250000426e+00
6.950000000000000178e+00,-3.846401367187500142e+00,-1.137873779296875121e+01,5.465434570312500462e+00
6.959999999999999964e+00,-3.618874511718749964e+00,-1.196072753906249986e+01,4.603227539062499929e+00
6.969999999999999751e+00,-2.857258300781249982e+00,-1.223854980468750142e+01,4.258344726562500071e+00
6.980000000000000426e+00,-2.114802246093749893e+00,-1.231758544921875043e+01,4.600832519531250497e+00
6.990000000000000213e+00,-1.556762695312500000e+00,-1.246607666015625071e+01,4.694238281250000533e+00
7.000000000000000000e+00,-5.604345703124999911e-01,-1.215711914062500121e+01,3.307521972656250142e+00
7.009999999999999787e+00,5.987548828125000000e-02,-1.107217529296875114e+01,2.248923339843750036e+00
7.019999999999999574e+00,5.221142578124999822e-01,-9.285490722656250639e+00,2.874023437500000000e+00
7.030000000000000249e+00,8.238867187500000799e-01,-7.692802734375000284e+00,3.578159179687500302e+00
7.040000000000000036e+00,1.875300292968750115e+00,-6.768325195312500320e+00,4.205654296875000142e+00
7.049999999999999822e+00,2.675236816406250107e+00,-7.122788085937500568e+00,3.523073730468750053e+00
7.059999999999999609e+00,3.544628906250000266e+00,-7.489226074218750639e+00,3.235671386718750320e+00
7.070000000000000284e+00,3.264411621093750160e+00,-7.958649902343750249e+00,1.765129394531250062e+00
7.080000000000000071e+00,2.792592773437500231e+00,-8.648415527343750853e+00,2.050136718750000142e+00
7.089999999999999858e+00,2.371069335937499911e+00,-8.327482910156250639e+00,2.234553222656249893e+00
7.099999999999999645e+00,2.212998046875000124e+00,-8.178991699218750355e+00,2.318378906249999982e+00
7.110000000000000320e+00,2.854863281250000107e+00,-8.140671386718750568e+00,1.836979980468750107e+00
7.120000000000000107e+00,3.101550292968750178e+00,-7.992180175781250284e+00,1.736389160156250000e+00
7.129999999999999893e+00,2.900368652343749964e+00,-7.618557128906250142e+00,2.069296875000000036e+00
7.139999999999999680e+00,2.579436035156250195e+00,-6.387517089843750107e+00,1.918410644531250098e+00
7.150000000000000355e+00,2.380649414062500302e+00,-6.136040039062500284e+00,2.383044433593750178e+00
7.160000000000000142e+00,1.836979980468750107e+00,-6.653364257812500071e+00,1.592687988281250133e+00
7.169999999999999929e+00,1.276545410156250115e+00,-6.636599121093750497e+00,1.987866210937500044e+00
7.179999999999999716e+00,1.053808593750000105e-01,-7.060517578125000249e+00,2.174677734374999893e+00
7.190000000000000391e+00,-8.238867187500000799e-01,-7.604187011718750000e+00,1.628613281250000044e+00
7.200000000000000178e+00,-1.808239746093750044e+00,-9.134604492187500924e+00,1.008303222656250053e+00
7.209999999999999964e+00,-2.536325683593750213e+00,-1.004710693359375107e+01,8.622070312500000888e-01
7.219999999999999751e+00,-3.079995117187499964e+00,-1.060754150390625128e+01,4.622387695312500377e-01
7.230000000000000426e+00,-3.353027343750000000e+00,-1.061712158203125078e+01,1.916015625000000097e-02
7.240000000000000213e+00,-3.285966796875000373e+00,-1.010698242187500107e+01,2.395019531250000121e-03
7.250000000000000000e+00,-3.592529296875000000e+00,-8.849597167968751066e+00,-1.413061523437500189e-01
7.259999999999999787e+00,-2.909948730468750355e+00,-8.236472167968750924e+00,3.832031250000000194e-02
7.269999999999999574e+00,-2.869233398437500249e+00,-7.795788574218750711e+00,-3.520678710937500400e-01
7.280000000000000249e+00,-3.159030761718750302e+00,-6.658154296875000711e+00,-7.879614257812500577e-01
7.290000000000000036e+00,-2.943479003906249947e+00,-6.016289062500000284e+00,2.754272460937500222e-01
7.299999999999999822e+00,-3.068020019531250142e+00,-5.673801269531249858e+00,1.015488281250000124e+00
7.309999999999999609e+00,-3.381767578125000284e+00,-5.671406250000000426e+00,2.251318359374999911e+00
7.320000000000000284e+00,-3.920646972656250284e+00,-6.282136230468750249e+00,2.514770507812500000e+00
7.330000000000000071e+00,-4.081113281250000391e+00,-7.819738769531250355e+00,2.471660156250000018e+00
7.339999999999999858e+00,-3.719465332031250071e+00,-9.683063964843750426e+00,2.313588867187500231e+00
7.349999999999999645e+00,-3.103945312500000053e+00,-1.139789794921875021e+01,1.264570312500000071e+00
7.360000000000000320e+00,-2.332749023437500124e+00,-1.252834716796875014e+01,9.556127929687500133e-01
7.370000000000000107e+00,-1.264570312500000071e+00,-1.295466064453125021e+01,-5.915698242187500400e-01
7.379999999999999893e+00,-5.484594726562500577e-01,-1.202778808593749993e+01,-1.180744628906249982e+00
7.389999999999999680e+00,5.987548828125000000e-01,-1.092847412109374972e+01,-1.805844726562500169e+00
7.400000000000000355e+00,9.675878906250000577e-01,-9.817185058593750568e+00,-5.676196289062500622e-01
7.410000000000000142e+00,2.318378906249999982e+00,-9.599238281250000782e+00,-1.856140136718750000e+00
7.419999999999999929e+00,1.937570800781249991e+00,-8.320297851562500568e+00,-4.311035156250000305e-02
7.429999999999999716e+00,1.386716308593750169e+00,-6.856940917968750604e+00,5.968388671875000107e+00
7.440000000000000391e+00,-4.071533203125000111e-01,-5.992338867187500639e+00,9.350156250000001279e+00
7.450000000000000178e+00,-7.515571289062500604e+00,-7.740703125000000462e+00,1.176673095703124972e+01
7.459999999999999964e+00,-1.240380615234375128e+01,-9.788444824218750284e+00,1.484672607421875057e+01
7.469999999999999751e+00,-4.560117187500000391e+00,-1.245889160156250064e+01,6.890471191406250639e+00
7.480000000000000426e+00,-1.492097167968750027e+00,-1.267683837890625043e+01,8.028105468750000639e+00
7.490000000000000213e+00,9.651928710937500711e-01,-1.618793701171875199e+01,7.934699707031250604e+00
7.500000000000000000e+00,3.329077148437500355e+00,-1.814945800781250185e+01,7.443720703125000782e+00
7.509999999999999787e+00,1.214514404296875050e+01,-2.397414550781250142e+01,7.386240234375000213e+00
7.519999999999999574e+00,5.822292480468750142e+00,-1.932541259765624986e+01,5.161267089843749822e+00
7.530000000000000249e+00,2.469265136718750142e+00,-1.525866943359375050e+01,6.902446289062500462e+00
7.540000000000000036e+00,-1.631008300781250142e+00,-1.183379150390624979e+01,3.271596679687500231e+00
7.549999999999999822e+00,-1.983076171875000071e+00,-9.402846679687501208e+00,2.850073242187500355e+00
7.559999999999999609e+00,-1.573527832031250018e+00,-9.637558593750000568e+00,3.106340332031250373e+00
7.570000000000000284e+00,-2.131567382812499911e+00,-8.564589843750001208e+00,2.270478515625000249e+00
7.580000000000000071e+00,-2.212998046875000124e+00,-8.986113281250000639e+00,2.011816406249999911e+00
7.589999999999999858e+00,-2.423759765625000284e+00,-8.435258789062499929e+00,2.857258300781249982e+00
7.599999999999999645e+00,-3.472778320312500000e+00,-7.503596191406250782e+00,7.941884765625000675e+00
7.610000000000000320e+00,-3.853586425781250213e+00,-7.113208007812500178e+00,3.875141601562499982e+00
7.620000000000000107e+00,-4.042792968750000604e+00,-6.638994140624999929e+00,3.781735839843750391e+00
7.629999999999999893e+00,-3.044069824218750053e+00,-6.564748535156250675e+00,3.319497070312499964e+00
7.639999999999999680e+00,-2.196232910156250107e+00,-6.416257324218750391e+00,3.182980957031249947e+00
7.650000000000000355e+00,-1.681303710937500195e+00,-6.552773437499999964e+00,2.933898925781250000e+00
7.660000000000000142e+00,-3.496728515624999978e-01,-6.543193359375000462e+00,3.036884765624999982e+00
7.669999999999999929e+00,1.173559570312499994e-01,-7.343129882812500675e+00,2.541115722656249964e+00
7.679999999999999716e+00,1.216669921875000115e+00,-7.599396972656250249e+00,8.933422851562500266e-01
7.690000000000000391e+00,1.460961914062500089e+00,-6.947951660156250320e+00,1.317260742187500167e-01
7.700000000000000178e+00,5.628295898437499778e-01,-5.807922363281250000e+00,-6.227050781250000056e-02
7.709999999999999964e+00,1.089733886718750044e+00,-5.134921874999999858e+00,8.286767578125000533e-01
7.719999999999999751e+00,1.482517089843750080e+00,-4.768483886718750675e+00,6.418652343749999822e-01
7.730000000000000426e+00,1.489702148437500151e+00,-5.103786621093750142e+00,7.185058593749999931e-03
7.740000000000000213e+00,1.535207519531250009e+00,-5.154082031250000639e+00,4.550537109375000361e-02
7.750000000000000000e+00,5.556445312500000178e-01,-5.034331054687500639e+00,5.771997070312500089e-01
7.759999999999999787e+00,-1.916015625000000167e-01,-5.166057128906250462e+00,1.092128906250000142e+00
7.769999999999999574e+00,-7.400610351562499911e-01,-5.393583984375000639e+00,6.107299804687500444e-01
7.780000000000000249e+00,-2.071691894531249911e+00,-5.975573730468750178e+00,4.119433593750000400e-01
7.790000000000000036e+00,-2.383044433593750178e+00,-6.821015625000000249e+00,-1.508862304687500211e-01
7.799999999999999822e+00,-2.533930664062500338e+00,-8.418493652343750355e+00,-2.658471679687500200e-01
7.809999999999999609e+00,-3.400927734375000178e+00,-8.899892578124999787e+00,-2.682421875000000067e-01
7.820000000000000284e+00,-3.494333496093750213e+00,-1.008063720703125021e+01,4.167333984375000133e-01
7.830000000000000071e+00,-3.276386718749999982e+00,-1.118713623046875050e+01,-2.203417968750000233e-01
7.839999999999999858e+00,-2.258503417968749982e+00,-1.183858154296875043e+01,-3.017724609375000422e-01
7.849999999999999645e+00,-1.372346191406250027e+00,-1.223375976562500078e+01,3.688330078125000022e-01
7.860000000000000320e+00,-8.190966796874999956e-01,-1.200144287109375085e+01,1.413061523437500133e+00
7.870000000000000107e+00,-6.969506835937500089e-01,-1.117516113281249979e+01,1.973496093750000124e+00
7.879999999999999893e+00,-1.104104003906249964e+00,-9.802814941406250426e+00,3.060834960937500071e+00
7.889999999999999680e+00,5.724096679687500355e-01,-1.024589355468750007e+01,5.431904296875000426e+00
7.900000000000000355e+00,1.489702148437500151e+00,-1.029139892578124993e+01,7.654482421875000497e+00
7.910000000000000142e+00,7.089257812500000533e-01,-1.027702880859374979e+01,5.015170898437499858e+00
7.919999999999999929e+00,-3.999682617187499956e-01,-1.068897216796874972e+01,1.585502929687500062e+00
7.929999999999999716e+00,-1.408271484375000160e+00,-1.136197265624999986e+01,-2.689606933593750249e+00
7.940000000000000391e+00,-1.245410156249999956e+00,-1.213556396484375099e+01,-4.303850097656249929e+00
7.950000000000000178e+00,-8.454418945312500711e-01,-1.209484863281250000e+01,-1.104104003906249964e+00
7.959999999999999964e+00,2.481240234374999964e+00,-1.250679199218749993e+01,2.308798828125000036e+00
7.969999999999999751e+00,4.854704589843750639e+00,-1.355581054687500142e+01,3.056044921875000320e+00
7.980000000000000426e+00,5.611530761718750426e+00,-1.393661865234374986e+01,3.757785644531250302e+00
7.990000000000000213e+00,4.014052734375000320e+00,-1.264091308593750007e+01,5.671406250000000426e+00
8.000000000000000000e+00,3.115920410156250320e+00,-9.280700683593750000e+00,8.444838867187501208e+00
8.009999999999999787e+00,4.490661621093750000e+00,-8.612490234375000497e+00,7.414980468750000497e+00
8.019999999999999574e+00,2.102827148437500071e+00,-7.819738769531250355e+00,4.893024902343750426e+00
8.029999999999999361e+00,-2.160307617187500195e+00,-6.914421386718750284e+00,3.896696777343750195e+00
8.039999999999999147e+00,-7.424560546875000888e-01,-8.030500488281250071e+00,6.246210937499999893e+00
8.050000000000000711e+00,-1.664538574218750178e+00,-9.297465820312501350e+00,7.977810058593750142e+00
8.060000000000000497e+00,-1.899250488281250204e+00,-1.221938964843750064e+01,6.071374511718750533e+00
8.070000000000000284e+00,-3.022514648437500284e+00,-1.656635009765625099e+01,5.709726562500000213e+00
8.080000000000000071e+00,-3.386557617187500036e+00,-1.723695556640625171e+01,3.470383300781250124e+00
8.089999999999999858e+00,-3.494333496093750213e+00,-1.526824951171875000e+01,1.353186035156250133e+00
8.099999999999999645e+00,-3.381767578125000284e+00,-1.221938964843750064e+01,1.978286132812500098e+00
8.109999999999999432e+00,-2.409389648437500142e+00,-1.098595458984375028e+01,7.568261718750000533e+00
8.119999999999999218e+00,-1.566342773437500169e+00,-9.553732910156250924e+00,1.882485351562500187e+00
8.130000000000000782e+00,9.340576171875000222e-01,-8.351433105468750284e+00,2.308798828125000036e+00
8.140000000000000568e+00,7.113208007812500400e-01,-8.080795898437500568e+00,2.246528320312500160e+00
8.150000000000000355e+00,1.413061523437500133e+00,-7.745493164062500213e+00,3.302731933593749947e+00
8.160000000000000142e+00,1.997446289062499991e+00,-7.668852539062500639e+00,3.353027343750000000e+00
8.169999999999999929e+00,2.766247558593750266e+00,-7.479645996093750249e+00,3.247646484375000142e+00
8.179999999999999716e+00,2.900368652343749964e+00,-7.688012695312500533e+00,2.074086914062500231e+00
8.189999999999999503e+00,3.563789062500000160e+00,-7.400610351562500355e+00,2.838098144531250089e+00
8.199999999999999289e+00,3.065625000000000266e+00,-7.932304687500000284e+00,2.397414550781250320e+00
8.210000000000000853e+00,1.961520996093750080e+00,-7.769443359375000746e+00,1.695673828125000115e+00
8.220000000000000639e+00,1.568737792968750044e+00,-7.115603027343750497e+00,2.435734863281250107e+00
8.230000000000000426e+00,1.523232421875000187e+00,-6.198310546875000604e+00,1.995051269531250115e+00
8.240000000000000213e+00,1.437011718750000000e+00,-5.563630371093750249e+00,2.112407226562500018e+00
8.250000000000000000e+00,1.317260742187500000e+00,-4.912185058593750320e+00,2.335144042968750000e+00
8.259999999999999787e+00,7.448510742187500755e-01,-4.291875000000000107e+00,1.944755859375000062e+00
8.269999999999999574e+00,7.879614257812500577e-01,-4.344565429687500036e+00,1.087338867187499947e+00
8.279999999999999361e+00,4.239184570312500289e-01,-5.063071289062500036e+00,2.474055175781250338e+00
8.289999999999999147e+00,-1.173559570312499994e-01,-5.841452636718750036e+00,6.155200195312500178e-01
8.300000000000000711e+00,-5.340893554687500266e-01,-6.006708984374999893e+00,1.944755859375000062e+00
8.310000000000000497e+00,-9.436376953125000799e-01,-6.974296875000000284e+00,1.817819824218749991e+00
8.320000000000000284e+00,-1.163979492187499964e+00,-7.929909667968749964e+00,1.547182617187500053e+00
8.330000000000000071e+00,-1.295705566406250009e+00,-9.096284179687501137e+00,1.434616699218750124e+00
8.339999999999999858e+00,-1.585502929687500062e+00,-9.920170898437500995e+00,6.155200195312500178e-01
8.349999999999999645e+00,-1.932780761718750018e+00,-1.038240966796874964e+01,6.322851562500000355e-01
8.359999999999999432e+00,-2.069296875000000036e+00,-1.058838134765625050e+01,3.688330078125000022e-01
8.369999999999999218e+00,-2.205812988281250053e+00,-1.017643798828125057e+01,-1.245410156250000011e-01
8.380000000000000782e+00,-2.624941406250000053e+00,-9.987231445312501066e+00,-4.502636718750000488e-01
8.390000000000000568e+00,-2.747087402343749929e+00,-8.923842773437501208e+00,-2.969824218750000133e-01
8.400000000000000355e+00,-2.687211914062499929e+00,-8.313112792968750497e+00,1.369951171875000151e+00
8.410000000000000142e+00,-2.397414550781250320e+00,-8.155041503906250711e+00,2.354304199218750338e+00
8.419999999999999929e+00,-2.332749023437500124e+00,-8.004155273437500995e+00,3.319497070312499964e+00
8.429999999999999716e+00,-3.113525390625000000e+00,-8.193361816406250497e+00,3.599714355468750071e+00
8.439999999999999503e+00,-2.900368652343749964e+00,-9.000483398437500782e+00,2.742297363281250178e+00
8.449999999999999289e+00,-2.706372070312500266e+00,-9.422006835937500213e+00,2.323168945312500178e+00
8.460000000000000853e+00,-2.569855957031250249e+00,-9.718989257812500782e+00,2.778222656250000089e+00
8.470000000000000639e+00,-1.990261230468750142e+00,-1.038240966796874964e+01,1.439406738281250098e+00
8.480000000000000426e+00,-9.364526367187500089e-01,-1.068418212890625085e+01,2.874023437499999972e-02
8.490000000000000213e+00,5.987548828125000000e-02,-1.034408935546874986e+01,-2.634521484375000264e-02
8.500000000000000000e+00,9.077124023437500577e-01,-1.012135253906250121e+01,9.580078125000000833e-02
8.509999999999999787e+00,1.233435058593750133e+00,-1.031055908203125071e+01,-2.778222656250000089e-01
8.519999999999999574e+00,1.626218261718750169e+00,-1.055245605468750014e+01,5.269042968750000527e-02
8.529999999999999361e+00,2.275268554687500111e-01,-9.912985839843750924e+00,-1.987866210937500044e-01
8.539999999999999147e+00,-1.422641601562500080e+00,-9.271120605468750497e+00,3.039279785156250302e+00
8.550000000000000711e+00,-3.269201660156250355e+00,-9.283095703125001208e+00,4.802014160156249822e+00
8.560000000000000497e+00,-4.390070800781249893e+00,-9.819580078125000000e+00,7.079677734375000142e+00
8.570000000000000284e+00,-3.743415527343750160e+00,-9.951306152343750711e+00,6.310876464843750533e+00
8.580000000000000071e+00,-4.933740234375000533e+00,-9.663903808593749645e+00,8.823251953125000213e+00
8.589999999999999858e+00,-5.951623535156250533e+00,-9.323811035156250426e+00,7.321574707031250462e+00
8.599999999999999645e+00,-4.255949707031250639e+00,-8.969348144531251066e+00,5.702541503906250142e+00
8.609999999999999432e+00,-1.348395996093750160e+00,-9.738149414062499787e+00,6.303691406250000462e+00
8.619999999999999218e+00,3.041674804687500178e+00,-1.141226806640625036e+01,1.203018310546875114e+01
8.630000000000000782e+00,3.307521972656250142e+00,-1.581191894531250064e+01,5.795947265625000178e+00
8.640000000000000568e+00,6.334826660156250178e+00,-2.104024658203125142e+01,6.104904785156250568e+00
8.650000000000000355e+00,3.968547363281250018e+00,-1.933259765625000171e+01,2.780617675781249964e+00
8.660000000000000142e+00,2.823728027343749947e+00,-1.636995849609375142e+01,2.567460937499999929e+00
8.669999999999999929e+00,-1.772314453125000133e-01,-1.208526855468750050e+01,-1.916015625000000167e-01
8.679999999999999716e+00,-5.963598632812500133e-01,-1.000878662109375128e+01,2.270478515625000249e+00
8.689999999999999503e+00,-1.183139648437500080e+00,-9.742939453125000426e+00,5.161267089843749822e+00
8.699999999999999289e+00,-2.090852050781250249e+00,-9.129814453125000284e+00,4.117038574218749858e+00
8.710000000000000853e+00,-1.650168457031250036e+00,-1.014530273437500085e+01,4.339775390625000284e+00
8.720000000000000639e+00,-1.997446289062499991e+00,-1.092847412109374972e+01,4.243974609374999929e+00
8.730000000000000426e+00,-2.258503417968749982e+00,-1.075124267578125092e+01,3.412902832031250000e+00
8.740000000000000213e+00,-2.502795410156250178e+00,-1.004471191406249986e+01,2.203417968750000178e+00
8.750000000000000000e+00,-3.479963378906250071e+00,-8.844807128906250426e+00,1.429826660156250151e+00
8.759999999999999787e+00,-2.505190429687500053e+00,-8.983718261718751208e+00,1.032253417968750142e+00
8.769999999999999574e+00,-1.918410644531250098e+00,-8.430468750000001066e+00,1.647773437500000160e+00
8.779999999999999361e+00,-1.367556152343750053e+00,-7.810158691406249964e+00,2.282453613281250071e+00
8.789999999999999147e+00,-8.358618164062500133e-01,-8.380173339843750568e+00,2.991379394531250124e+00
8.800000000000000711e+00,-4.454736328125000200e-01,-8.382568359375000000e+00,2.406994628906250266e+00
8.810000000000000497e+00,5.269042968750000527e-02,-8.231682128906250284e+00,9.675878906250000577e-01
8.820000000000000284e+00,-6.107299804687500444e-01,-7.295229492187500497e+00,7.879614257812500577e-01
8.830000000000000071e+00,-6.634204101562500844e-01,-6.840175781250000142e+00,8.071215820312500622e-01
8.839999999999999858e+00,-6.370751953125000089e-01,-6.006708984374999893e+00,7.472460937500000622e-01
8.849999999999999645e+00,-4.502636718750000488e-01,-5.137316894531250178e+00,1.111289062500000036e+00
8.859999999999999432e+00,-1.032253417968750142e+00,-4.631967773437500213e+00,2.474055175781250338e+00
8.869999999999999218e+00,-4.167333984375000133e-01,-4.251159667968750000e+00,1.980681152343750195e+00
8.880000000000000782e+00,-2.874023437500000111e-01,-4.112248535156250107e+00,1.571132812500000142e+00
8.890000000000000568e+00,-1.365161132812500178e+00,-4.109853515624999787e+00,1.772314453125000133e+00
8.900000000000000355e+00,-7.903564453125000444e-01,-4.363725585937499929e+00,1.135239257812500124e+00
8.910000000000000142e+00,-6.322851562500000355e-01,-4.514611816406250533e+00,7.927514648437500311e-01
8.919999999999999929e+00,-1.415456542968750009e+00,-4.567302246093750462e+00,3.903881835937499933e-01
8.929999999999999716e+00,-8.167016601562500089e-01,-5.173242187500000533e+00,-5.843847656250000799e-01
8.939999999999999503e+00,-9.101074218750000444e-01,-5.925278320312500568e+00,-1.072968750000000027e+00
8.949999999999999289e+00,-9.580078125000000000e-01,-7.273674316406250284e+00,-1.465751953125000062e+00
8.960000000000000853e+00,-1.235830078125000009e+00,-8.624465332031251208e+00,-1.252595214843750027e+00
8.970000000000000639e+00,-1.369951171875000151e+00,-1.023870849609375000e+01,-4.933740234375000311e-01
8.980000000000000426e+00,-1.714833984375000009e+00,-1.228884521484375014e+01,6.418652343749999822e-01
8.990000000000000213e+00,-1.635798339843750115e+00,-1.439167236328125021e+01,1.298100585937500107e+00
9.000000000000000000e+00,-1.494492187500000124e+00,-1.571851318359375149e+01,1.542392578125000080e+00
9.009999999999999787e+00,-1.595083007812500009e+00,-1.529219970703125142e+01,1.401086425781250089e+00
9.019999999999999574e+00,-1.925595703125000169e+00,-1.320374267578125149e+01,2.356699218750000213e+00
9.029999999999999361e+00,-2.299218750000000089e+00,-1.083746337890625000e+01,3.901486816406250391e+00
9.039999999999999147e+00,-1.781894531250000080e+00,-9.369316406250000284e+00,4.212839355468750213e+00
9.050000000000000711e+00,-1.338815917968749991e+00,-8.384963378906251208e+00,2.629731445312500249e+00
9.060000000000000497e+00,-1.367556152343750053e+00,-8.138276367187501137e+00,1.678908691406250098e+00
9.070000000000000284e+00,-6.586303710937500000e-01,-8.641230468750000782e+00,-9.005273437500000977e-01
9.080000000000000071e+00,-1.841770019531250080e+00,-9.086704101562499858e+00,-3.963757324218750266e+00
9.089999999999999858e+00,-1.420246582031249982e+00,-7.874824218750000604e+00,2.155517578125000153e-02
9.099999999999999645e+00,1.506467285156250169e+00,-8.040080566406249574e+00,5.623505859375000249e+00
9.109999999999999432e+00,5.072651367187500426e+00,-9.271120605468750497e+00,1.177870605468750043e+01
9.119999999999999218e+00,1.010937744140625050e+01,-1.408031982421875128e+01,2.161505126953125000e+01
9.130000000000000782e+00,8.277187500000000142e+00,-1.693039306640624986e+01,4.591252441406250107e+00
9.140000000000000568e+00,-4.790039062500000243e-03,-1.208766357421874993e+01,-2.646496582031250266e+00
9.150000000000000355e+00,1.365161132812500178e-01,-1.238943603515625114e+01,-2.342329101562500071e+00
9.160000000000000142e+00,-3.180585937500000071e+00,-8.770561523437500284e+00,1.166374511718750062e+00
9.169999999999999929e+00,-2.136357421875000107e+00,-1.029139892578124993e+01,1.390308837890625071e+01
9.179999999999999716e+00,-3.621269531250000284e+00,-9.510622558593750497e+00,1.328756835937500114e+01
9.189999999999999503e+00,-2.656076660156250213e+00,-1.382165771484375050e+01,5.470224609375000213e+00
9.199999999999999289e+00,-2.347119140625000266e+00,-1.471739501953125107e+01,3.393742675781250107e+00
9.210000000000000853e+00,-1.420246582031249982e+00,-1.482517089843750036e+01,3.844006347656250266e+00
9.220000000000000639e+00,-1.099313964843749991e+00,-1.378333740234375071e+01,3.537443847656250195e+00
9.230000000000000426e+00,-7.951464843750000178e-01,-1.194635742187500149e+01,3.302731933593749947e+00
9.240000000000000213e+00,-1.762734375000000187e+00,-9.781259765625000213e+00,4.696633300781249964e+00
9.250000000000000000e+00,7.185058593750000000e-01,-9.295070800781250142e+00,2.962639160156250284e+00
9.259999999999999787e+00,1.070573730468750151e+00,-8.061635742187499787e+00,4.442761230468749822e+00
9.269999999999999574e+00,1.882485351562500187e+00,-7.046147460937500107e+00,4.035607910156250533e+00
9.279999999999999361e+00,2.581831054687500071e+00,-7.319179687500000142e+00,3.048859863281250249e+00
9.289999999999999147e+00,3.015329589843750213e+00,-7.268884277343750533e+00,3.647614746093750249e+00
9.300000000000000711e+00,2.926713867187499929e+00,-7.767048339843750426e+00,2.014211425781250231e+00
9.310000000000000497e+00,2.308798828125000036e+00,-7.826923828125000426e+00,2.169887695312500142e+00
9.320000000000000284e+00,1.949545898437500036e+00,-7.656877441406250817e+00,2.763852539062499947e+00
9.330000000000000071e+00,1.410666503906250036e+00,-7.858059082031250142e+00,2.426154785156250160e+00
9.339999999999999858e+00,1.781894531250000080e+00,-7.666457519531250320e+00,1.808239746093750044e+00
9.349999999999999645e+00,2.138752441406249982e+00,-7.247329101562500320e+00,2.402204589843750071e+00
9.359999999999999432e+00,1.925595703125000169e+00,-7.151528320312499964e+00,1.535207519531250009e+00
9.369999999999999218e+00,2.196232910156250107e+00,-6.416257324218750391e+00,2.663261718750000284e+00
9.380000000000000782e+00,1.865720214843750169e+00,-6.658154296875000711e+00,1.765129394531250062e+00
9.390000000000000568e+00,6.753955078125000178e-01,-6.758745117187499929e+00,2.136357421875000107e+00
9.400000000000000355e+00,4.095483398437499978e-01,-6.854545898437500284e+00,1.954335937500000009e+00
9.410000000000000142e+00,-3.784130859375000044e-01,-7.173083496093750178e+00,2.363884277343750284e+00
9.419999999999999929e+00,-1.140029296875000098e+00,-7.314389648437500391e+00,2.624941406250000053e+00
9.429999999999999716e+00,-1.695673828125000115e+00,-8.095166015625000711e+00,1.978286132812500098e+00
9.439999999999999503e+00,-1.899250488281250204e+00,-8.396938476562500142e+00,1.226250000000000062e+00
9.449999999999999289e+00,-1.884880371093750062e+00,-8.279582519531249574e+00,1.257385253906250000e+00
9.460000000000000853e+00,-1.710043945312500036e+00,-8.507109375000000639e+00,1.039438476562499991e+00
9.470000000000000639e+00,-2.035766601562500000e+00,-8.751401367187501279e+00,3.544628906250000266e-01
9.480000000000000426e+00,-2.457290039062500320e+00,-8.792116699218750497e+00,-1.676513671875000042e-02
9.490000000000000213e+00,-3.159030761718750302e+00,-8.586145019531249645e+00,-4.311035156250000444e-01
9.500000000000000000e+00,-4.425996093750000249e+00,-7.268884277343750533e+00,-5.819897460937499822e-01
9.509999999999999787e+00,-3.887116699218750249e+00,-6.938371582031249929e+00,-2.466870117187500155e-01
9.519999999999999574e+00,-4.152963867187500213e+00,-6.425837402343749893e+00,-1.460961914062500200e-01
9.529999999999999361e+00,-3.408112792968750249e+00,-6.148015136718750107e+00,4.742138671875000266e-01
9.539999999999999147e+00,-2.747087402343749929e+00,-6.066584472656249893e+00,1.544787597656250178e+00
9.550000000000000711e+00,-2.117197265625000213e+00,-6.064189453125000462e+00,2.361489257812499964e+00
9.560000000000000497e+00,-1.973496093750000124e+00,-6.509663085937500426e+00,3.111130371093750124e+00
9.570000000000000284e+00,-1.585502929687500062e+00,-7.570656738281249964e+00,2.957849121093750089e+00
9.580000000000000071e+00,-8.957373046875000133e-01,-8.998088378906249574e+00,2.689606933593750249e+00
9.589999999999999858e+00,-6.897656250000000488e-01,-1.037761962890625078e+01,2.600991210937499964e+00
9.599999999999999645e+00,-1.372346191406250027e+00,-1.174517578125000128e+01,2.110012207031250142e+00
9.609999999999999432e+00,-2.167492675781250266e+00,-1.290197021484375028e+01,8.526269531250000311e-01
9.619999999999999218e+00,-2.593806152343750338e+00,-1.319895263671875085e+01,-4.957690429687500178e-01
9.630000000000000782e+00,-2.023791503906250178e+00,-1.287083496093750057e+01,-1.283730468749999964e+00
9.640000000000000568e+00,-1.884880371093750062e+00,-1.170925048828125092e+01,-8.957373046875000133e-01
9.650000000000000355e+00,-1.221459960937500006e-01,-1.086620361328125028e+01,-1.413061523437500189e-01
9.660000000000000142e+00,1.005908203125000094e-01,-9.673483886718750924e+00,5.005590820312499911e-01
9.669999999999999929e+00,-1.489702148437500151e+00,-8.202941894531250000e+00,3.788920898437500018e+00
9.679999999999999716e+00,-3.199746093749999964e+00,-7.886799316406250426e+00,5.060676269531250604e+00
9.689999999999999503e+00,-1.980681152343750195e+00,-8.411308593750000284e+00,6.921606445312500355e+00
9.699999999999999289e+00,-2.682421875000000178e+00,-8.744216308593751208e+00,9.263935546875000426e+00
9.710000000000000853e+00,-5.738466796875000497e+00,-1.020278320312499964e+01,8.543034667968750995e+00
9.720000000000000639e+00,-4.105063476562500036e+00,-1.091410400390625135e+01,5.673801269531249858e+00
9.730000000000000426e+00,-1.250200195312500151e+00,-8.863967285156251208e+00,6.583908691406250568e+00
9.740000000000000213e+00,1.638193359374999991e+00,-1.026744873046875028e+01,1.089254882812500114e+01
9.750000000000000000e+00,4.495451660156250639e+00,-1.348875000000000135e+01,8.155041503906250711e+00
9.759999999999999787e+00,5.625900878906250568e+00,-1.811353271484374972e+01,6.969506835937500533e+00
9.769999999999999574e+00,7.577841796875000036e+00,-2.181623291015625199e+01,4.512216796875000213e+00
9.779999999999999361e+00,3.182980957031249947e+00,-1.817340820312499972e+01,3.400927734375000178e+00
9.789999999999999147e+00,8.214916992187500933e-01,-1.461680419921875007e+01,1.676513671875000000e+00
9.800000000000000711e+00,-8.622070312500000888e-01,-1.172362060546875107e+01,1.860930175781250195e+00
9.810000000000000497e+00,-2.129172363281250036e+00,-1.005908203125000000e+01,2.845283203125000160e+00
9.820000000000000284e+00,-2.117197265625000213e+00,-8.478369140625000355e+00,7.156318359375000604e+00
9.830000000000000071e+00,-2.320773925781250302e+00,-9.263935546875000426e+00,3.676354980468750089e+00
9.839999999999999858e+00,-2.735112304687500107e+00,-1.013332763671875014e+01,3.652404785156250000e+00
9.849999999999999645e+00,-3.015329589843750213e+00,-1.013093261718750071e+01,3.321892089843750284e+00
9.859999999999999432e+00,-3.199746093749999964e+00,-8.964558105468750426e+00,2.895578613281250213e+00
9.869999999999999218e+00,-3.178190917968750195e+00,-8.729846191406251066e+00,2.435734863281250107e+00
9.880000000000000782e+00,-2.830913085937500018e+00,-8.085585937500001208e+00,1.966311035156250053e+00
9.890000000000000568e+00,-3.209326171875000355e+00,-7.479645996093750249e+00,1.954335937500000009e+00
9.900000000000000355e+00,-2.167492675781250266e+00,-7.568261718750000533e+00,2.234553222656249893e+00
9.910000000000000142e+00,-1.432221679687500027e+00,-7.280859375000000355e+00,1.662143554687500080e+00
9.919999999999999929e+00,-8.430468750000000844e-01,-7.386240234375000213e+00,1.808239746093750044e+00
9.929999999999999716e+00,-4.550537109375000222e-01,-7.788603515625000639e+00,1.262175292968749973e+00
9.939999999999999503e+00,-3.017724609375000422e-01,-7.414980468750000497e+00,7.927514648437500311e-01
9.949999999999999289e+00,-9.244775390625000755e-01,-6.210285644531250426e+00,6.753955078125000178e-01
9.960000000000000853e+00,-4.215234375000000422e-01,-5.779182128906250604e+00,8.622070312500000888e-01
9.970000000000000639e+00,-3.233276367187500333e-01,-5.419929199218750604e+00,1.729204101562500151e+00
9.980000000000000426e+00,-3.089575195312500022e-01,-5.551655273437500426e+00,1.525627441406250062e+00
9.990000000000000213e+00,-2.083666992187500067e-01,-5.795947265625000178e+00,1.149609375000000044e+00
1.000000000000000000e+01,-8.238867187500000799e-01,-5.884562988281250462e+00,7.376660156250000044e-01
1.000999999999999979e+01,-4.478686523437500067e-01,-5.767207031249999893e+00,4.909790039062500444e-01
1.001999999999999957e+01,-5.101391601562500488e-01,-5.475014648437499964e+00,7.664062500000000666e-01
1.002999999999999936e+01,-1.523232421875000187e+00,-5.391188964843750320e+00,1.836979980468750107e+00
1.003999999999999915e+01,-1.381926269531249973e+00,-5.635480957031250071e+00,1.271755371093750142e+00
1.005000000000000071e+01,-1.638193359374999991e+00,-6.052214355468750639e+00,5.005590820312499911e-01
1.006000000000000050e+01,-2.517165527343750320e+00,-6.662944335937500462e+00,-6.634204101562500844e-01
1.007000000000000028e+01,-2.280058593750000195e+00,-7.755073242187500604e+00,-9.316625976562500355e-01
1.008000000000000007e+01,-2.986589355468750373e+00,-8.480764160156249787e+00,-2.826123046875000377e-01
1.008999999999999986e+01,-3.472778320312500000e+00,-9.627978515625001066e+00,-3.209326171874999911e-01
1.009999999999999964e+01,-3.204536132812500160e+00,-1.072489746093750007e+01,-9.484277343750000533e-01
1.010999999999999943e+01,-2.512375488281250124e+00,-1.188887695312500092e+01,2.586621093750000044e-01
1.011999999999999922e+01,-1.523232421875000187e+00,-1.290676025390625092e+01,1.889670410156250036e+00
1.013000000000000078e+01,-8.598120117187499911e-01,-1.346240478515625050e+01,2.359094238281250089e+00
1.014000000000000057e+01,-8.167016601562500089e-01,-1.287562500000000121e+01,2.857258300781249982e+00
1.015000000000000036e+01,-7.903564453125000444e-01,-1.157033935546875014e+01,4.179309082031250178e+00
1.016000000000000014e+01,1.130449218750000151e+00,-1.138352783203125007e+01,6.167175292968750000e+00
1.016999999999999993e+01,2.612966308593750231e+00,-1.079195800781250014e+01,6.001918945312500142e+00
1.017999999999999972e+01,2.380649414062500302e+00,-1.023870849609375000e+01,3.115920410156250320e+00
1.018999999999999950e+01,1.448986816406250044e+00,-9.553732910156250924e+00,-2.732717285156250231e+00
1.019999999999999929e+01,1.132844238281250027e+00,-9.522597656250001208e+00,-7.410190429687500746e+00
1.021000000000000085e+01,7.352709960937500178e-01,-1.001597167968750135e+01,-4.006867675781250249e+00
1.022000000000000064e+01,-6.203100585937499911e-01,-1.019799316406250078e+01,1.690883789062500142e+00
1.023000000000000043e+01,-8.861572265625000666e-01,-1.046863037109375050e+01,3.324287109375000160e+00
1.024000000000000021e+01,2.466870117187500155e-01,-1.128533203125000028e+01,4.960085449218750497e+00
1.025000000000000000e+01,1.487307128906250053e+00,-1.227447509765625000e+01,6.998247070312499929e+00
1.025999999999999979e+01,2.526745605468750266e+00,-1.173320068359375057e+01,7.630532226562499964e+00
1.026999999999999957e+01,6.152805175781250746e+00,-1.302411621093750149e+01,7.922724609375000782e+00
1.027999999999999936e+01,4.172124023437500107e+00,-1.238464599609375050e+01,5.391188964843750320e+00
1.028999999999999915e+01,1.381926269531249973e+00,-1.060754150390625128e+01,3.764970703125000373e+00
1.030000000000000071e+01,-1.231040039062500036e+00,-8.418493652343750355e+00,6.274951171875000178e+00
1.031000000000000050e+01,-2.430944824218749911e+00,-7.424560546875000000e+00,9.105864257812500639e+00
1.032000000000000028e+01,-3.772155761718750000e+00,-8.514294433593750711e+00,4.933740234375000533e+00
1.033000000000000007e+01,-3.391347656250000231e+00,-1.040156982421875043e+01,5.484594726562500355e+00
1.033999999999999986e+01,-3.558999023437499964e+00,-1.264330810546875128e+01,4.768483886718750675e+00
1.034999999999999964e+01,-2.481240234374999964e+00,-1.351749023437499986e+01,4.634362792968750533e+00
1.035999999999999943e+01,-1.302890625000000080e+00,-1.365161132812500000e+01,4.380490722656250391e+00
1.036999999999999922e+01,-6.370751953125000089e-01,-1.349833007812500085e+01,2.936293945312500320e+00
1.038000000000000078e+01,1.293310546875000022e-01,-1.169248535156250135e+01,2.138752441406249982e+00
1.039000000000000057e+01,-6.945556640625000222e-02,-9.685458984374999858e+00,1.487307128906250053e+00
1.040000000000000036e+01,1.580712890625000089e+00,-7.726333007812500320e+00,3.889511718750000124e+00
1.041000000000000014e+01,1.580712890625000089e+00,-7.656877441406250817e+00,2.490820312499999911e+00
1.041999999999999993e+01,3.168610839843750249e+00,-7.132368164062500071e+00,3.408112792968750249e+00
1.042999999999999972e+01,2.229763183593750142e+00,-7.300019531250000249e+00,1.733994140625000124e+00
1.043999999999999950e+01,2.131567382812499911e+00,-7.410190429687500746e+00,1.197509765625000000e+00
1.044999999999999929e+01,1.446591796875000169e+00,-7.268884277343750533e+00,8.262817382812500666e-01
1.046000000000000085e+01,1.492097167968750027e+00,-6.981481933593750355e+00,1.456171875000000115e+00
1.047000000000000064e+01,1.159189453124999991e+00,-7.350314941406250746e+00,1.022673339843749973e+00
1.048000000000000043e+01,8.933422851562500266e-01,-7.551496582031250071e+00,1.396296386718750115e+00
1.049000000000000021e+01,6.801855468749999911e-01,-7.434140625000000391e+00,1.084943847656250071e+00
1.050000000000000000e+01,5.987548828125000000e-01,-7.412585449218750178e+00,7.927514648437500311e-01
1.050999999999999979e+01,4.215234375000000422e-01,-6.540798339843750142e+00,7.424560546875000888e-01
1.051999999999999957e+01,1.892065429687500022e-01,-6.404282226562500568e+00,1.547182617187500053e+00
1.052999999999999936e+01,-2.802172851562499956e-01,-6.148015136718750107e+00,1.645378417968750062e+00
1.053999999999999915e+01,-1.226250000000000062e+00,-6.665339355468750782e+00,1.942360839843750187e+00
1.055000000000000071e+01,-2.179467773437500089e+00,-7.225773925781250107e+00,1.516047363281250115e+00
1.056000000000000050e+01,-3.027304687500000036e+00,-7.606582031250000320e+00,2.167492675781250266e+00
1.057000000000000028e+01,-3.633244628906250107e+00,-8.495134277343749929e+00,1.434616699218750124e+00
1.058000000000000007e+01,-4.121828613281250497e+00,-9.342971191406251208e+00,1.154399414062500018e+00
1.058999999999999986e+01,-4.301455078125000497e+00,-9.513017578124999929e+00,8.167016601562500089e-01
1.059999999999999964e+01,-3.791315917968750338e+00,-8.957373046875000355e+00,8.454418945312500711e-01
1.060999999999999943e+01,-3.115920410156250320e+00,-8.581354980468750782e+00,8.238867187500000799e-01
1.061999999999999922e+01,-2.550695800781249911e+00,-8.435258789062499929e+00,5.053491210937500755e-01
1.063000000000000078e+01,-1.911225585937500027e+00,-8.114326171874999716e+00,-6.706054687500000167e-02
1.064000000000000057e+01,-9.388476562499999956e-01,-8.286767578124999645e+00,-1.844165039062500011e-01
1.065000000000000036e+01,-1.089733886718750044e+00,-8.190966796875001066e+00,1.437011718749999986e-02
1.066000000000000014e+01,-9.508227539062500400e-01,-8.258027343750001137e+00,1.005908203125000094e-01
1.066999999999999993e+01,-1.175954589843750009e+00,-8.329877929687500071e+00,6.921606445312500355e-01
1.067999999999999972e+01,-1.142424316406249973e+00,-8.655600585937500924e+00,1.813029785156250018e+00
1.068999999999999950e+01,-1.084943847656250071e+00,-8.844807128906250426e+00,2.610571289062499911e+00
1.069999999999999929e+01,-1.015488281250000124e+00,-8.753796386718750711e+00,3.535048828125000320e+00
1.071000000000000085e+01,-1.053808593750000133e+00,-9.297465820312501350e+00,4.191284179687500000e+00
1.072000000000000064e+01,-1.939965820312500033e-01,-1.004231689453125043e+01,2.960244140624999964e+00
1.073000000000000043e+01,-2.442919921875000011e-01,-1.063628173828124979e+01,3.424877929687500266e+00
1.074000000000000021e+01,-9.460327148437500666e-01,-1.160626464843750050e+01,3.331472167968750231e+00
1.075000000000000000e+01,-1.281335449218750089e+00,-1.239901611328125064e+01,2.088457031249999929e+00
1.075999999999999979e+01,-9.244775390625000755e-01,-1.231279541015624979e+01,2.395019531250000000e-01
1.076999999999999957e+01,1.772314453125000133e-01,-1.123264160156250036e+01,-5.987548828125000000e-01
1.077999999999999936e+01,8.023315429687500888e-01,-1.050934570312499972e+01,-5.891748046875000533e-01
1.078999999999999915e+01,1.027463378906249947e+00,-1.023631347656250057e+01,-1.441801757812499973e+00
1.080000000000000071e+01,3.400927734374999956e-01,-9.953701171875000142e+00,-1.626218261718750169e+00
1.081000000000000050e+01,-1.353186035156250133e+00,-8.964558105468750426e+00,3.218906250000000302e+00
1.082000000000000028e+01,-2.677631835937499982e+00,-9.402846679687501208e+00,2.174677734374999893e+00
1.083000000000000007e+01,-3.398532714843750302e+00,-9.524992675781250639e+00,4.083508300781249822e+00
1.083999999999999986e+01,-2.751877441406250124e+00,-9.642348632812501208e+00,6.442602539062500355e+00
1.084999999999999964e+01,-3.887116699218750249e+00,-9.917775878906249787e+00,1.011416748046875114e+01
1.085999999999999943e+01,-7.407795410156250426e+00,-1.017643798828125057e+01,8.135881347656249929e+00
1.086999999999999922e+01,-6.231840820312500639e+00,-9.718989257812500782e+00,6.131250000000000533e+00
1.088000000000000078e+01,-4.356540527343749858e+00,-9.781259765625000213e+00,6.133645019531249964e+00
1.089000000000000057e+01,-1.642983398437500187e+00,-9.920170898437500995e+00,6.150410156250000426e+00
1.090000000000000036e+01,8.167016601562500089e-01,-1.021954833984375099e+01,6.258186035156250604e+00
1.091000000000000014e+01,2.366279296875000160e+00,-1.324685302734375014e+01,6.624624023437500675e+00
1.091999999999999993e+01,4.617597656250000071e+00,-1.781415527343749972e+01,5.281018066406250711e+00
1.092999999999999972e+01,3.729045410156250018e+00,-1.741179199218749929e+01,3.585344238281250373e+00
1.093999999999999950e+01,3.499123535156249964e+00,-1.578317871093750036e+01,2.998564453125000195e+00
1.094999999999999929e+01,3.113525390625000028e-02,-1.128293701171875085e+01,-7.927514648437500311e-01
1.096000000000000085e+01,-2.395019531250000000e-01,-9.771679687500000711e+00,1.798659667968750098e+00
1.097000000000000064e+01,-5.292993164062500533e-01,-8.588540039062500853e+00,3.836821289062500195e+00
1.098000000000000043e+01,-1.484912109375000178e+00,-7.939489746093750355e+00,8.796906738281251137e+00
1.099000000000000021e+01,-1.472937011718750133e+00,-8.131091308593751066e+00,3.937412109375000302e+00
1.100000000000000000e+01,-1.401086425781250089e+00,-7.982600097656250782e+00,3.606899414062500142e+00
1.100999999999999979e+01,-2.246528320312500160e+00,-7.472460937500000178e+00,4.270319824218749893e+00
1.101999999999999957e+01,-2.406994628906250266e+00,-7.192243652343750071e+00,4.035607910156250533e+00
1.102999999999999936e+01,-2.478845214843750089e+00,-7.165898437500000107e+00,3.467988281250000249e+00
1.103999999999999915e+01,-2.131567382812499911e+00,-7.101232910156250355e+00,2.909948730468750355e+00
1.105000000000000071e+01,-2.121987304687499964e+00,-7.601791992187500568e+00,2.869233398437500249e+00
1.106000000000000050e+01,-1.341210937500000089e+00,-7.731123046875000071e+00,1.604663085937500178e+00
1.107000000000000028e+01,-1.084943847656250071e+00,-7.465275878906250107e+00,1.039438476562499991e+00
1.108000000000000007e+01,-6.777905273437500044e-01,-7.431745605468750071e+00,8.813671875000000933e-01
1.108999999999999986e+01,-3.808081054687500466e-01,-6.979086914062500036e+00,5.771997070312500089e-01
1.109999999999999964e+01,-4.837939453125000289e-01,-6.073769531249999964e+00,6.059399414062500711e-01
1.110999999999999943e+01,-7.592211914062499956e-01,-5.695356445312500071e+00,1.106499023437500062e+00
1.111999999999999922e+01,-6.298901367187500488e-01,-5.908513183593750107e+00,1.508862304687500044e+00
1.113000000000000078e+01,-3.855981445312500200e-01,-6.646179199218750000e+00,1.314865722656250124e+00
1.114000000000000057e+01,2.275268554687500111e-01,-7.362290039062500568e+00,1.238225097656250107e+00
1.115000000000000036e+01,4.790039062500000000e-01,-7.862849121093750782e+00,1.432221679687500027e+00
1.116000000000000014e+01,4.119433593750000400e-01,-7.417375488281250817e+00,1.551972656250000027e+00
1.116999999999999993e+01,1.724414062500000122e-01,-7.479645996093750249e+00,2.069296875000000036e+00
1.117999999999999972e+01,-1.460961914062500200e-01,-8.040080566406249574e+00,1.664538574218750178e+00
1.118999999999999950e+01,-5.748046875000000222e-01,-8.655600585937500924e+00,3.664379882812500155e-01
1.119999999999999929e+01,-1.307680664062500053e+00,-8.832832031249999716e+00,-1.152004394531250142e+00
1.121000000000000085e+01,-1.219064941406249991e+00,-9.445957031249999858e+00,-2.390229492187500249e+00
1.122000000000000064e+01,-1.585502929687500062e+00,-9.481882324218750213e+00,-1.616638183593750000e+00
1.123000000000000043e+01,-1.717229003906250107e+00,-9.723779296874999645e+00,-1.017883300781250000e+00
1.124000000000000021e+01,-1.884880371093750062e+00,-9.841135253906250213e+00,-6.658154296875000711e-01
1.125000000000000000e+01,-1.808239746093750044e+00,-9.927355957031251066e+00,-3.520678710937500400e-01
1.125999999999999979e+01,-1.707648925781250160e+00,-9.879455566406250000e+00,-2.395019531250000208e-02
1.126999999999999957e+01,-1.427431640625000053e+00,-9.802814941406250426e+00,1.664538574218750178e+00
1.127999999999999936e+01,-1.008303222656250053e+00,-8.950187988281250284e+00,3.654799804687500320e+00
1.128999999999999915e+01,-3.185375976562500044e-01,-8.248447265624999858e+00,5.221142578124999822e+00
1.130000000000000071e+01,8.047265625000000755e-01,-8.126301269531250426e+00,7.529941406250000746e+00
1.131000000000000050e+01,1.161584472656250089e+00,-8.281977539062500782e+00,5.884562988281250462e+00
1.132000000000000028e+01,1.125659179687499956e+00,-9.663903808593749645e+00,3.975732421875000089e+00
1.133000000000000007e+01,-4.478686523437500067e-01,-1.006387207031250064e+01,-2.059716796875000200e-01
1.133999999999999986e+01,-1.084943847656250071e+00,-1.102906494140625071e+01,-4.505031738281250142e+00
1.134999999999999964e+01,-1.199904785156250098e+00,-1.217388427734375078e+01,-5.807922363281250000e+00
1.135999999999999943e+01,-1.451381835937500142e+00,-1.250439697265625050e+01,-2.541115722656249964e+00
1.136999999999999922e+01,-1.765129394531250062e+00,-1.228645019531250071e+01,1.700463867187499978e-01
1.138000000000000078e+01,-3.353027343750000083e-02,-1.230561035156250149e+01,3.305126953124999933e-01
1.139000000000000057e+01,4.861889648437500155e-01,-1.220501953125000050e+01,1.401086425781250089e+00
1.140000000000000036e+01,2.624941406250000053e+00,-1.212598388671875149e+01,5.031936035156250320e+00
1.141000000000000014e+01,2.878813476562500195e+00,-1.129730712890625099e+01,1.412103515625000050e+01
1.141999999999999993e+01,1.088057373046875043e+01,-1.208766357421874993e+01,2.054447753906250185e+01
1.142999999999999972e+01,6.483317871093750462e+00,-1.074884765624999972e+01,2.720742187499999964e+00
1.143999999999999950e+01,4.646337890625000355e+00,-1.069376220703125036e+01,2.811752929687500124e+00
1.144999999999999929e+01,-7.304809570312500444e-01,-7.561076660156250462e+00,1.463356933593749964e+00
1.146000000000000085e+01,-3.326682128906250036e+00,-6.631809082031250746e+00,8.025710449218751208e+00
1.147000000000000064e+01,-1.961520996093750080e+00,-7.755073242187500604e+00,9.213640136718749929e+00
1.148000000000000043e+01,-4.531376953125000107e+00,-1.193438232421875078e+01,3.422482910156250391e+00
1.149000000000000021e+01,-3.812871093750000107e+00,-1.447549804687499986e+01,4.138593750000000071e+00
1.150000000000000000e+01,-2.943479003906249947e+00,-1.545985107421875071e+01,3.467988281250000249e+00
1.150999999999999979e+01,-1.413061523437500133e+00,-1.414977539062500078e+01,7.424560546875000888e-01
1.151999999999999957e+01,-1.595083007812500009e+00,-1.113205078125000114e+01,-1.532812500000000133e+00
1.152999999999999936e+01,-8.310717773437500400e-01,-9.673483886718750924e+00,8.190966796874999956e-01
1.153999999999999915e+01,-7.592211914062499956e-01,-7.632927246093750284e+00,2.615361328125000107e+00
1.155000000000000071e+01,3.353027343750000083e-02,-6.744375000000000675e+00,7.029382324218750533e+00
1.156000000000000050e+01,-1.317260742187500167e-01,-7.237749023437499929e+00,2.392624511718750124e+00
1.157000000000000028e+01,3.731440429687500338e+00,-6.945556640625000000e+00,3.077600097656250089e+00
1.158000000000000007e+01,3.046464843750000373e+00,-7.223378906250000675e+00,2.732717285156250231e+00
1.158999999999999986e+01,2.773432617187500338e+00,-7.824528808593750107e+00,2.452500000000000124e+00
1.159999999999999964e+01,1.825004882812500062e+00,-8.224497070312500213e+00,2.102827148437500071e+00
1.160999999999999943e+01,9.627978515625000844e-01,-8.794511718749999929e+00,2.677631835937499982e+00
1.161999999999999922e+01,3.257226562500000200e-01,-8.763376464843750213e+00,2.165097656249999947e+00
1.163000000000000078e+01,-1.484912109375000067e-01,-8.087980957031250639e+00,1.877695312499999991e+00
1.164000000000000057e+01,-1.389111328125000044e-01,-7.601791992187500568e+00,1.899250488281250204e+00
1.165000000000000036e+01,1.197509765625000000e-01,-7.144343261718750782e+00,1.353186035156250133e+00
1.166000000000000014e+01,2.179467773437500089e-01,-6.964716796875000782e+00,1.362766113281250080e+00
1.166999999999999993e+01,4.119433593750000400e-01,-6.203100585937500355e+00,1.195114746093750124e+00
1.167999999999999972e+01,-3.736230468750000311e-01,-6.461762695312500249e+00,3.520678710937500400e-01
1.168999999999999950e+01,-1.185534667968749956e+00,-6.444997558593750675e+00,1.374741210937500124e+00
1.169999999999999929e+01,-1.628613281250000044e+00,-6.672524414062499964e+00,1.178349609375000107e+00
1.171000000000000085e+01,-1.918410644531250098e+00,-7.431745605468750071e+00,1.583107910156250187e+00
1.172000000000000064e+01,-1.942360839843750187e+00,-8.030500488281250071e+00,1.573527832031250018e+00
1.173000000000000043e+01,-1.836979980468750107e+00,-8.368198242187499858e+00,1.415456542968750009e+00
1.174000000000000021e+01,-1.657353515625000107e+00,-8.863967285156251208e+00,1.207089843750000169e+00
1.175000000000000000e+01,-1.501677246093749973e+00,-9.529782714843751279e+00,3.185375976562500044e-01
1.175999999999999979e+01,-1.410666503906250036e+00,-9.412426757812500711e+00,3.903881835937499933e-01
1.176999999999999957e+01,-1.482517089843750080e+00,-9.661508789062500213e+00,-5.963598632812500133e-01
