TIME,BVP,ACCX,ACCY,ACCZ,GSR,ST,LAB
0.000000,-42.197853,27.000000,8.000000,59.000000,0.263922,34.350000,0.000000
0.015625,-45.271477,27.000000,8.000000,59.000000,0.263922,34.350000,0.000000
0.031250,-48.827600,27.000000,7.000000,59.000000,0.263922,34.350000,0.000000
0.046875,-52.727036,27.000000,7.000000,59.000000,0.263922,34.350000,0.000000
0.062500,-56.749012,27.000000,7.000000,59.000000,0.263922,34.350000,0.000000
0.078125,-60.832615,27.000000,7.000000,59.000000,0.263922,34.350000,0.000000
0.093750,-65.094450,27.000000,8.000000,58.000000,0.263922,34.350000,0.000000
0.109375,-69.785600,27.000000,8.000000,58.000000,0.263922,34.350000,0.000000
0.125000,-75.076160,27.000000,9.000000,57.000000,0.263922,34.350000,0.000000
0.140625,-80.887740,27.000000,9.000000,57.000000,0.263922,34.350000,0.000000
0.156250,-86.790344,28.000000,9.000000,56.000000,0.263922,34.350000,0.000000
0.171875,-92.071045,28.000000,9.000000,56.000000,0.263922,34.350000,0.000000
0.187500,-95.838850,28.000000,9.000000,55.000000,0.263922,34.350000,0.000000
0.203125,-97.165650,28.000000,9.000000,55.000000,0.263922,34.350000,0.000000
0.218750,-95.131280,28.000000,9.000000,55.000000,0.263922,34.350000,0.000000
0.234375,-88.904755,28.000000,9.000000,55.000000,0.263922,34.350000,0.000000
0.250000,-77.833000,27.000000,9.000000,55.000000,0.276734,34.350000,0.000000
0.265625,-61.551514,27.000000,9.000000,55.000000,0.276734,34.350000,0.000000
0.281250,-40.237520,28.000000,9.000000,56.000000,0.276734,34.350000,0.000000
0.296875,-14.813652,28.000000,9.000000,56.000000,0.276734,34.350000,0.000000
0.312500,13.062698,27.000000,9.000000,57.000000,0.276734,34.350000,0.000000
0.328125,41.352097,27.000000,9.000000,57.000000,0.276734,34.350000,0.000000
0.343750,68.165870,27.000000,9.000000,57.000000,0.276734,34.350000,0.000000
0.359375,92.325390,27.000000,9.000000,57.000000,0.276734,34.350000,0.000000
0.375000,113.625860,28.000000,8.000000,58.000000,0.276734,34.350000,0.000000
0.390625,132.526960,28.000000,8.000000,58.000000,0.276734,34.350000,0.000000
0.406250,149.596050,28.000000,8.000000,58.000000,0.276734,34.350000,0.000000
0.421875,164.849030,28.000000,8.000000,58.000000,0.276734,34.350000,0.000000
0.437500,177.616580,27.000000,8.000000,57.000000,0.276734,34.350000,0.000000
0.453125,186.933550,27.000000,8.000000,57.000000,0.276734,34.350000,0.000000
0.468750,192.214690,27.000000,8.000000,57.000000,0.276734,34.350000,0.000000
0.484375,193.806500,27.000000,8.000000,57.000000,0.276734,34.350000,0.000000
0.500000,192.982500,28.000000,9.000000,57.000000,0.271609,34.350000,0.000000
0.515625,191.376630,28.000000,9.000000,57.000000,0.271609,34.350000,0.000000
0.531250,190.126140,27.000000,9.000000,56.000000,0.271609,34.350000,0.000000
0.546875,189.221820,27.000000,9.000000,56.000000,0.271609,34.350000,0.000000
0.562500,187.456420,27.000000,9.000000,57.000000,0.271609,34.350000,0.000000
0.578125,182.957820,27.000000,9.000000,57.000000,0.271609,34.350000,0.000000
0.593750,173.861950,27.000000,9.000000,57.000000,0.271609,34.350000,0.000000
0.609375,158.979000,27.000000,9.000000,57.000000,0.271609,34.350000,0.000000
0.625000,138.084670,27.000000,9.000000,56.000000,0.271609,34.350000,0.000000
0.640625,111.894060,27.000000,9.000000,56.000000,0.271609,34.350000,0.000000
0.656250,81.867874,28.000000,9.000000,56.000000,0.271609,34.350000,0.000000
0.671875,49.936310,28.000000,9.000000,56.000000,0.271609,34.350000,0.000000
0.687500,18.294632,27.000000,9.000000,56.000000,0.271609,34.350000,0.000000
0.703125,-10.852264,27.000000,9.000000,56.000000,0.271609,34.350000,0.000000
0.718750,-35.552048,27.000000,9.000000,57.000000,0.271609,34.350000,0.000000
0.734375,-54.469880,27.000000,9.000000,57.000000,0.271609,34.350000,0.000000
0.750000,-67.038400,27.000000,8.000000,57.000000,0.271609,34.350000,0.000000
0.765625,-73.519730,27.000000,8.000000,57.000000,0.271609,34.350000,0.000000
0.781250,-74.837270,28.000000,8.000000,57.000000,0.271609,34.350000,0.000000
0.796875,-72.309520,28.000000,8.000000,57.000000,0.271609,34.350000,0.000000
0.812500,-67.385150,27.000000,8.000000,57.000000,0.271609,34.350000,0.000000
0.828125,-61.474495,27.000000,8.000000,57.000000,0.271609,34.350000,0.000000
0.843750,-55.791367,27.000000,8.000000,57.000000,0.271609,34.350000,0.000000
0.859375,-51.203360,27.000000,8.000000,57.000000,0.271609,34.350000,0.000000
0.875000,-48.046616,27.000000,8.000000,57.000000,0.271609,34.350000,0.000000
0.890625,-46.091890,27.000000,8.000000,57.000000,0.271609,34.350000,0.000000
0.906250,-44.709106,27.000000,10.000000,56.000000,0.271609,34.350000,0.000000
0.921875,-43.172424,27.000000,10.000000,56.000000,0.271609,34.350000,0.000000
0.937500,-41.088190,27.000000,10.000000,55.000000,0.271609,34.350000,0.000000
0.953125,-38.495316,27.000000,10.000000,55.000000,0.271609,34.350000,0.000000
0.968750,-35.806587,27.000000,10.000000,55.000000,0.271609,34.350000,0.000000
0.984375,-33.466125,27.000000,10.000000,55.000000,0.271609,34.350000,0.000000
1.000000,-31.662628,27.000000,10.000000,55.000000,0.270328,34.410000,0.000000
1.015625,-30.258446,27.000000,10.000000,55.000000,0.270328,34.410000,0.000000
1.031250,-28.924843,28.000000,9.000000,56.000000,0.270328,34.410000,0.000000
1.046875,-27.386452,28.000000,9.000000,56.000000,0.270328,34.410000,0.000000
1.062500,-25.633015,28.000000,8.000000,57.000000,0.270328,34.410000,0.000000
1.078125,-23.834286,28.000000,8.000000,57.000000,0.270328,34.410000,0.000000
1.093750,-22.142520,28.000000,7.000000,58.000000,0.270328,34.410000,0.000000
1.109375,-20.583244,28.000000,7.000000,58.000000,0.270328,34.410000,0.000000
1.125000,-19.037052,28.000000,7.000000,59.000000,0.270328,34.410000,0.000000
1.140625,-17.414840,28.000000,7.000000,59.000000,0.270328,34.410000,0.000000
1.156250,-15.727963,28.000000,7.000000,59.000000,0.270328,34.410000,0.000000
1.171875,-14.105469,28.000000,7.000000,59.000000,0.270328,34.410000,0.000000
1.187500,-12.661114,28.000000,9.000000,59.000000,0.270328,34.410000,0.000000
1.203125,-11.226181,28.000000,9.000000,59.000000,0.270328,34.410000,0.000000
1.218750,-9.499805,27.000000,9.000000,57.000000,0.270328,34.410000,0.000000
1.234375,-7.267273,27.000000,9.000000,57.000000,0.270328,34.410000,0.000000
1.250000,-4.605993,27.000000,10.000000,56.000000,0.270328,34.410000,0.000000
1.265625,-1.881697,27.000000,10.000000,56.000000,0.270328,34.410000,0.000000
1.281250,0.425518,28.000000,10.000000,56.000000,0.270328,34.410000,0.000000
1.296875,1.980770,28.000000,10.000000,56.000000,0.270328,34.410000,0.000000
1.312500,2.805824,27.000000,9.000000,56.000000,0.270328,34.410000,0.000000
1.328125,3.178951,27.000000,9.000000,56.000000,0.270328,34.410000,0.000000
1.343750,3.423357,28.000000,8.000000,56.000000,0.270328,34.410000,0.000000
1.359375,3.582759,28.000000,8.000000,56.000000,0.270328,34.410000,0.000000
1.375000,3.422905,28.000000,8.000000,56.000000,0.270328,34.410000,0.000000
1.390625,2.620783,28.000000,8.000000,56.000000,0.270328,34.410000,0.000000
1.406250,0.987079,28.000000,8.000000,56.000000,0.270328,34.410000,0.000000
1.421875,-1.274931,28.000000,8.000000,56.000000,0.270328,34.410000,0.000000
1.437500,-3.644273,27.000000,8.000000,56.000000,0.270328,34.410000,0.000000
1.453125,-5.495388,27.000000,8.000000,56.000000,0.270328,34.410000,0.000000
1.468750,-6.401687,27.000000,8.000000,57.000000,0.270328,34.410000,0.000000
1.484375,-6.291580,27.000000,8.000000,57.000000,0.270328,34.410000,0.000000
1.500000,-5.451832,27.000000,9.000000,57.000000,0.269047,34.410000,0.000000
1.515625,-4.340531,27.000000,9.000000,57.000000,0.269047,34.410000,0.000000
1.531250,-3.399752,27.000000,8.000000,57.000000,0.269047,34.410000,0.000000
1.546875,-2.908429,27.000000,8.000000,57.000000,0.269047,34.410000,0.000000
1.562500,-2.964204,27.000000,8.000000,57.000000,0.269047,34.410000,0.000000
1.578125,-3.474546,27.000000,8.000000,57.000000,0.269047,34.410000,0.000000
1.593750,-4.189639,27.000000,8.000000,57.000000,0.269047,34.410000,0.000000
1.609375,-4.782487,27.000000,8.000000,57.000000,0.269047,34.410000,0.000000
1.625000,-4.950250,27.000000,8.000000,57.000000,0.269047,34.410000,0.000000
1.640625,-4.527474,27.000000,8.000000,57.000000,0.269047,34.410000,0.000000
1.656250,-3.509475,28.000000,8.000000,57.000000,0.269047,34.410000,0.000000
1.671875,-2.052894,28.000000,8.000000,57.000000,0.269047,34.410000,0.000000
1.687500,-0.527436,28.000000,9.000000,56.000000,0.269047,34.410000,0.000000
1.703125,0.716674,28.000000,9.000000,56.000000,0.269047,34.410000,0.000000
1.718750,1.387755,28.000000,8.000000,57.000000,0.269047,34.410000,0.000000
1.734375,1.361818,28.000000,8.000000,57.000000,0.269047,34.410000,0.000000
1.750000,0.707126,28.000000,8.000000,57.000000,0.269047,34.410000,0.000000
1.765625,-0.331153,28.000000,8.000000,57.000000,0.269047,34.410000,0.000000
1.781250,-1.459621,27.000000,8.000000,57.000000,0.269047,34.410000,0.000000
1.796875,-2.426504,27.000000,8.000000,57.000000,0.269047,34.410000,0.000000
1.812500,-3.122404,28.000000,9.000000,57.000000,0.269047,34.410000,0.000000
1.828125,-3.536867,28.000000,9.000000,57.000000,0.269047,34.410000,0.000000
1.843750,-3.703497,28.000000,9.000000,57.000000,0.269047,34.410000,0.000000
1.859375,-3.633497,28.000000,9.000000,57.000000,0.269047,34.410000,0.000000
1.875000,-3.349146,28.000000,8.000000,57.000000,0.269047,34.410000,0.000000
1.890625,-2.878063,28.000000,8.000000,57.000000,0.269047,34.410000,0.000000
1.906250,-2.378212,28.000000,8.000000,57.000000,0.269047,34.410000,0.000000
1.921875,-2.086838,28.000000,8.000000,57.000000,0.269047,34.410000,0.000000
1.937500,-2.243534,28.000000,9.000000,57.000000,0.269047,34.410000,0.000000
1.953125,-2.967117,28.000000,9.000000,57.000000,0.269047,34.410000,0.000000
1.968750,-4.059441,28.000000,9.000000,57.000000,0.269047,34.410000,0.000000
1.984375,-5.136799,28.000000,9.000000,57.000000,0.269047,34.410000,0.000000
2.000000,-5.749487,27.000000,9.000000,57.000000,0.269047,34.370000,0.000000
2.015625,-5.617351,27.000000,9.000000,57.000000,0.269047,34.370000,0.000000
2.031250,-4.824440,27.000000,8.000000,57.000000,0.269047,34.370000,0.000000
2.046875,-3.769421,27.000000,8.000000,57.000000,0.269047,34.370000,0.000000
2.062500,-2.897293,28.000000,9.000000,57.000000,0.269047,34.370000,0.000000
2.078125,-2.455051,28.000000,9.000000,57.000000,0.269047,34.370000,0.000000
2.093750,-2.388367,28.000000,9.000000,56.000000,0.269047,34.370000,0.000000
2.109375,-2.392433,28.000000,9.000000,56.000000,0.269047,34.370000,0.000000
2.125000,-2.165192,28.000000,9.000000,57.000000,0.269047,34.370000,0.000000
2.140625,-1.646667,28.000000,9.000000,57.000000,0.269047,34.370000,0.000000
2.156250,-1.047501,28.000000,9.000000,57.000000,0.269047,34.370000,0.000000
2.171875,-0.686291,28.000000,9.000000,57.000000,0.269047,34.370000,0.000000
2.187500,-0.800221,28.000000,9.000000,56.000000,0.269047,34.370000,0.000000
2.203125,-1.321396,28.000000,9.000000,56.000000,0.269047,34.370000,0.000000
2.218750,-1.968548,28.000000,8.000000,57.000000,0.269047,34.370000,0.000000
2.234375,-2.452404,28.000000,8.000000,57.000000,0.269047,34.370000,0.000000
2.250000,-2.640839,27.000000,8.000000,57.000000,0.269047,34.370000,0.000000
2.265625,-2.668434,27.000000,8.000000,57.000000,0.269047,34.370000,0.000000
2.281250,-2.776238,28.000000,8.000000,57.000000,0.269047,34.370000,0.000000
2.296875,-3.133575,28.000000,8.000000,57.000000,0.269047,34.370000,0.000000
2.312500,-3.702511,27.000000,8.000000,57.000000,0.269047,34.370000,0.000000
2.328125,-4.304371,27.000000,8.000000,57.000000,0.269047,34.370000,0.000000
2.343750,-4.711273,27.000000,8.000000,57.000000,0.269047,34.370000,0.000000
2.359375,-4.871952,27.000000,8.000000,57.000000,0.269047,34.370000,0.000000
2.375000,-4.865570,27.000000,9.000000,57.000000,0.269047,34.370000,0.000000
2.390625,-4.811638,27.000000,9.000000,57.000000,0.269047,34.370000,0.000000
2.406250,-4.785236,27.000000,9.000000,56.000000,0.269047,34.370000,0.000000
2.421875,-4.698891,27.000000,9.000000,56.000000,0.269047,34.370000,0.000000
2.437500,-4.418495,28.000000,10.000000,55.000000,0.269047,34.370000,0.000000
2.453125,-3.919830,28.000000,10.000000,55.000000,0.269047,34.370000,0.000000
2.468750,-3.355072,28.000000,10.000000,56.000000,0.269047,34.370000,0.000000
2.484375,-2.980316,28.000000,10.000000,56.000000,0.269047,34.370000,0.000000
2.500000,-3.046474,28.000000,9.000000,56.000000,0.270328,34.370000,0.000000
2.515625,-3.547333,28.000000,9.000000,56.000000,0.270328,34.370000,0.000000
2.531250,-4.237236,28.000000,9.000000,57.000000,0.270328,34.370000,0.000000
2.546875,-4.778347,28.000000,9.000000,57.000000,0.270328,34.370000,0.000000
2.562500,-4.890312,28.000000,8.000000,57.000000,0.270328,34.370000,0.000000
2.578125,-4.505829,28.000000,8.000000,57.000000,0.270328,34.370000,0.000000
2.593750,-3.722958,28.000000,8.000000,57.000000,0.270328,34.370000,0.000000
2.609375,-2.667080,28.000000,8.000000,57.000000,0.270328,34.370000,0.000000
2.625000,-1.359333,28.000000,7.000000,58.000000,0.270328,34.370000,0.000000
2.640625,0.196232,28.000000,7.000000,58.000000,0.270328,34.370000,0.000000
2.656250,1.940384,28.000000,7.000000,58.000000,0.270328,34.370000,0.000000
2.671875,3.623665,28.000000,7.000000,58.000000,0.270328,34.370000,0.000000
2.687500,4.819763,28.000000,7.000000,58.000000,0.270328,34.370000,0.000000
2.703125,5.164681,28.000000,7.000000,58.000000,0.270328,34.370000,0.000000
2.718750,4.531818,27.000000,7.000000,58.000000,0.270328,34.370000,0.000000
2.734375,3.208881,27.000000,7.000000,58.000000,0.270328,34.370000,0.000000
2.750000,1.757309,27.000000,8.000000,57.000000,0.269047,34.370000,0.000000
2.765625,0.763565,27.000000,8.000000,57.000000,0.269047,34.370000,0.000000
2.781250,0.568191,27.000000,9.000000,57.000000,0.269047,34.370000,0.000000
2.796875,1.101791,27.000000,9.000000,57.000000,0.269047,34.370000,0.000000
2.812500,1.958713,27.000000,10.000000,55.000000,0.269047,34.370000,0.000000
2.828125,2.603912,27.000000,10.000000,55.000000,0.269047,34.370000,0.000000
2.843750,2.641998,27.000000,10.000000,55.000000,0.269047,34.370000,0.000000
2.859375,1.914890,27.000000,10.000000,55.000000,0.269047,34.370000,0.000000
2.875000,0.640938,27.000000,10.000000,55.000000,0.269047,34.370000,0.000000
2.890625,-0.742752,27.000000,10.000000,55.000000,0.269047,34.370000,0.000000
2.906250,-1.776123,27.000000,9.000000,55.000000,0.269047,34.370000,0.000000
2.921875,-2.159019,27.000000,9.000000,55.000000,0.269047,34.370000,0.000000
2.937500,-1.874474,28.000000,8.000000,56.000000,0.269047,34.370000,0.000000
2.953125,-1.132027,28.000000,8.000000,56.000000,0.269047,34.370000,0.000000
2.968750,-0.251137,28.000000,7.000000,58.000000,0.269047,34.370000,0.000000
2.984375,0.543228,28.000000,7.000000,58.000000,0.269047,34.370000,0.000000
3.000000,1.159355,28.000000,7.000000,58.000000,0.267766,34.370000,0.000000
3.015625,1.632233,28.000000,7.000000,58.000000,0.267766,34.370000,0.000000
3.031250,1.937767,28.000000,7.000000,58.000000,0.267766,34.370000,0.000000
3.046875,1.968323,28.000000,7.000000,58.000000,0.267766,34.370000,0.000000
3.062500,1.594750,28.000000,7.000000,58.000000,0.267766,34.370000,0.000000
3.078125,0.744453,28.000000,7.000000,58.000000,0.267766,34.370000,0.000000
3.093750,-0.449158,28.000000,9.000000,57.000000,0.267766,34.370000,0.000000
3.109375,-1.750214,28.000000,9.000000,57.000000,0.267766,34.370000,0.000000
3.125000,-2.864807,27.000000,9.000000,57.000000,0.267766,34.370000,0.000000
3.140625,-3.606995,27.000000,9.000000,57.000000,0.267766,34.370000,0.000000
3.156250,-3.902000,27.000000,9.000000,56.000000,0.267766,34.370000,0.000000
3.171875,-3.825035,27.000000,9.000000,56.000000,0.267766,34.370000,0.000000
3.187500,-3.523315,27.000000,10.000000,56.000000,0.267766,34.370000,0.000000
3.203125,-3.128990,27.000000,10.000000,56.000000,0.267766,34.370000,0.000000
3.218750,-2.792458,28.000000,10.000000,55.000000,0.267766,34.370000,0.000000
3.234375,-2.611649,28.000000,10.000000,55.000000,0.267766,34.370000,0.000000
3.250000,-2.677536,28.000000,9.000000,56.000000,0.267766,34.370000,0.000000
3.265625,-2.982857,28.000000,9.000000,56.000000,0.267766,34.370000,0.000000
3.281250,-3.388153,28.000000,8.000000,56.000000,0.267766,34.370000,0.000000
3.296875,-3.649994,28.000000,8.000000,56.000000,0.267766,34.370000,0.000000
3.312500,-3.560135,28.000000,8.000000,56.000000,0.267766,34.370000,0.000000
3.328125,-3.012520,28.000000,8.000000,56.000000,0.267766,34.370000,0.000000
3.343750,-2.040596,28.000000,8.000000,57.000000,0.267766,34.370000,0.000000
3.359375,-0.891487,28.000000,8.000000,57.000000,0.267766,34.370000,0.000000
3.375000,0.188454,28.000000,8.000000,57.000000,0.267766,34.370000,0.000000
3.390625,1.015747,28.000000,8.000000,57.000000,0.267766,34.370000,0.000000
3.406250,1.502808,28.000000,8.000000,57.000000,0.267766,34.370000,0.000000
3.421875,1.720276,28.000000,8.000000,57.000000,0.267766,34.370000,0.000000
3.437500,1.844742,28.000000,9.000000,57.000000,0.267766,34.370000,0.000000
3.453125,2.035431,28.000000,9.000000,57.000000,0.267766,34.370000,0.000000
3.468750,2.388939,28.000000,9.000000,57.000000,0.267766,34.370000,0.000000
3.484375,2.857452,28.000000,9.000000,57.000000,0.267766,34.370000,0.000000
3.500000,3.263329,28.000000,9.000000,57.000000,0.267766,34.370000,0.000000
3.515625,3.460220,28.000000,9.000000,57.000000,0.267766,34.370000,0.000000
3.531250,3.380981,28.000000,9.000000,57.000000,0.267766,34.370000,0.000000
3.546875,3.066040,28.000000,9.000000,57.000000,0.267766,34.370000,0.000000
3.562500,2.654022,28.000000,9.000000,57.000000,0.267766,34.370000,0.000000
3.578125,2.241776,28.000000,9.000000,57.000000,0.267766,34.370000,0.000000
3.593750,1.855164,28.000000,9.000000,57.000000,0.267766,34.370000,0.000000
3.609375,1.448952,28.000000,9.000000,57.000000,0.267766,34.370000,0.000000
3.625000,0.930008,28.000000,9.000000,57.000000,0.267766,34.370000,0.000000
3.640625,0.172203,28.000000,9.000000,57.000000,0.267766,34.370000,0.000000
3.656250,-0.887131,28.000000,9.000000,56.000000,0.267766,34.370000,0.000000
3.671875,-2.263748,28.000000,9.000000,56.000000,0.267766,34.370000,0.000000
3.687500,-3.809654,28.000000,9.000000,56.000000,0.267766,34.370000,0.000000
3.703125,-5.170586,28.000000,9.000000,56.000000,0.267766,34.370000,0.000000
3.718750,-5.824890,28.000000,9.000000,56.000000,0.267766,34.370000,0.000000
3.734375,-5.352348,28.000000,9.000000,56.000000,0.267766,34.370000,0.000000
3.750000,-3.595779,28.000000,9.000000,57.000000,0.269047,34.370000,0.000000
3.765625,-0.817589,28.000000,9.000000,57.000000,0.269047,34.370000,0.000000
3.781250,2.234390,28.000000,9.000000,57.000000,0.269047,34.370000,0.000000
3.796875,4.638321,28.000000,9.000000,57.000000,0.269047,34.370000,0.000000
3.812500,5.648338,28.000000,9.000000,57.000000,0.269047,34.370000,0.000000
3.828125,4.983917,28.000000,9.000000,57.000000,0.269047,34.370000,0.000000
3.843750,3.004776,28.000000,9.000000,57.000000,0.269047,34.370000,0.000000
3.859375,0.496689,28.000000,9.000000,57.000000,0.269047,34.370000,0.000000
3.875000,-1.717224,28.000000,9.000000,57.000000,0.269047,34.370000,0.000000
3.890625,-3.050896,28.000000,9.000000,57.000000,0.269047,34.370000,0.000000
3.906250,-3.361748,28.000000,9.000000,57.000000,0.269047,34.370000,0.000000
3.921875,-2.878349,28.000000,9.000000,57.000000,0.269047,34.370000,0.000000
3.937500,-1.956673,28.000000,9.000000,57.000000,0.269047,34.370000,0.000000
3.953125,-0.924004,28.000000,9.000000,57.000000,0.269047,34.370000,0.000000
3.968750,-0.017464,28.000000,9.000000,56.000000,0.269047,34.370000,0.000000
3.984375,0.613342,28.000000,9.000000,56.000000,0.269047,34.370000,0.000000
4.000000,0.824615,28.000000,9.000000,56.000000,0.267766,34.350000,0.000000
4.015625,0.472771,28.000000,9.000000,56.000000,0.267766,34.350000,0.000000
4.031250,-0.576759,28.000000,9.000000,56.000000,0.267766,34.350000,0.000000
4.046875,-2.317474,28.000000,9.000000,56.000000,0.267766,34.350000,0.000000
4.062500,-4.535469,28.000000,9.000000,56.000000,0.267766,34.350000,0.000000
4.078125,-6.782089,28.000000,9.000000,56.000000,0.267766,34.350000,0.000000
4.093750,-8.464020,28.000000,9.000000,57.000000,0.267766,34.350000,0.000000
4.109375,-9.146355,28.000000,9.000000,57.000000,0.267766,34.350000,0.000000
4.125000,-8.709404,28.000000,9.000000,57.000000,0.267766,34.350000,0.000000
4.140625,-7.439575,28.000000,9.000000,57.000000,0.267766,34.350000,0.000000
4.156250,-5.836029,28.000000,9.000000,57.000000,0.267766,34.350000,0.000000
4.171875,-4.372368,28.000000,9.000000,57.000000,0.267766,34.350000,0.000000
4.187500,-3.228256,28.000000,9.000000,56.000000,0.267766,34.350000,0.000000
4.203125,-2.300774,28.000000,9.000000,56.000000,0.267766,34.350000,0.000000
4.218750,-1.264305,28.000000,9.000000,56.000000,0.267766,34.350000,0.000000
4.234375,0.077156,28.000000,9.000000,56.000000,0.267766,34.350000,0.000000
4.250000,1.667313,28.000000,9.000000,57.000000,0.267766,34.350000,0.000000
4.265625,3.224419,28.000000,9.000000,57.000000,0.267766,34.350000,0.000000
4.281250,4.345131,28.000000,9.000000,57.000000,0.267766,34.350000,0.000000
4.296875,4.727043,28.000000,9.000000,57.000000,0.267766,34.350000,0.000000
4.312500,4.366684,28.000000,9.000000,56.000000,0.267766,34.350000,0.000000
4.328125,3.510513,28.000000,9.000000,56.000000,0.267766,34.350000,0.000000
4.343750,2.533089,28.000000,9.000000,57.000000,0.267766,34.350000,0.000000
4.359375,1.736816,28.000000,9.000000,57.000000,0.267766,34.350000,0.000000
4.375000,1.229691,28.000000,9.000000,56.000000,0.267766,34.350000,0.000000
4.390625,0.934959,28.000000,9.000000,56.000000,0.267766,34.350000,0.000000
4.406250,0.719910,28.000000,9.000000,57.000000,0.267766,34.350000,0.000000
4.421875,0.477226,28.000000,9.000000,57.000000,0.267766,34.350000,0.000000
4.437500,0.209419,28.000000,9.000000,57.000000,0.267766,34.350000,0.000000
4.453125,-0.001976,28.000000,9.000000,57.000000,0.267766,34.350000,0.000000
4.468750,-0.014450,28.000000,9.000000,57.000000,0.267766,34.350000,0.000000
4.484375,0.247246,28.000000,9.000000,57.000000,0.267766,34.350000,0.000000
4.500000,0.789330,28.000000,9.000000,57.000000,0.267766,34.350000,0.000000
4.515625,1.555519,28.000000,9.000000,57.000000,0.267766,34.350000,0.000000
4.531250,2.396744,28.000000,9.000000,57.000000,0.267766,34.350000,0.000000
4.546875,3.145210,28.000000,9.000000,57.000000,0.267766,34.350000,0.000000
4.562500,3.668884,28.000000,9.000000,56.000000,0.267766,34.350000,0.000000
4.578125,3.831879,28.000000,9.000000,56.000000,0.267766,34.350000,0.000000
4.593750,3.601265,28.000000,9.000000,56.000000,0.267766,34.350000,0.000000
4.609375,3.038612,28.000000,9.000000,56.000000,0.267766,34.350000,0.000000
4.625000,2.242874,28.000000,9.000000,57.000000,0.267766,34.350000,0.000000
4.640625,1.388084,28.000000,9.000000,57.000000,0.267766,34.350000,0.000000
4.656250,0.574020,28.000000,9.000000,57.000000,0.267766,34.350000,0.000000
4.671875,-0.198196,28.000000,9.000000,57.000000,0.267766,34.350000,0.000000
4.687500,-1.002876,28.000000,9.000000,57.000000,0.267766,34.350000,0.000000
4.703125,-1.936653,28.000000,9.000000,57.000000,0.267766,34.350000,0.000000
4.718750,-2.971847,28.000000,9.000000,57.000000,0.267766,34.350000,0.000000
4.734375,-3.977730,28.000000,9.000000,57.000000,0.267766,34.350000,0.000000
4.750000,-4.746086,27.000000,9.000000,57.000000,0.267766,34.350000,0.000000
4.765625,-5.172562,27.000000,9.000000,57.000000,0.267766,34.350000,0.000000
4.781250,-5.308166,26.000000,8.000000,57.000000,0.267766,34.350000,0.000000
4.796875,-5.320106,26.000000,8.000000,57.000000,0.267766,34.350000,0.000000
4.812500,-5.347160,28.000000,9.000000,57.000000,0.267766,34.350000,0.000000
4.828125,-5.380875,28.000000,9.000000,57.000000,0.267766,34.350000,0.000000
4.843750,-5.188179,29.000000,9.000000,56.000000,0.267766,34.350000,0.000000
4.859375,-4.535530,29.000000,9.000000,56.000000,0.267766,34.350000,0.000000
4.875000,-3.294914,28.000000,10.000000,56.000000,0.267766,34.350000,0.000000
4.890625,-1.602768,28.000000,10.000000,56.000000,0.267766,34.350000,0.000000
4.906250,0.155510,28.000000,10.000000,56.000000,0.267766,34.350000,0.000000
4.921875,1.495026,28.000000,10.000000,56.000000,0.267766,34.350000,0.000000
4.937500,2.125511,28.000000,10.000000,56.000000,0.267766,34.350000,0.000000
4.953125,1.999443,28.000000,10.000000,56.000000,0.267766,34.350000,0.000000
4.968750,1.344551,28.000000,9.000000,56.000000,0.267766,34.350000,0.000000
4.984375,0.490822,28.000000,9.000000,56.000000,0.267766,34.350000,0.000000
5.000000,-0.302544,28.000000,9.000000,56.000000,0.267766,34.350000,0.000000
5.015625,-0.892494,28.000000,9.000000,56.000000,0.267766,34.350000,0.000000
5.031250,-1.231003,28.000000,9.000000,57.000000,0.267766,34.350000,0.000000
5.046875,-1.340614,28.000000,9.000000,57.000000,0.267766,34.350000,0.000000
5.062500,-1.206551,28.000000,9.000000,57.000000,0.267766,34.350000,0.000000
5.078125,-0.855110,28.000000,9.000000,57.000000,0.267766,34.350000,0.000000
5.093750,-0.428131,28.000000,9.000000,57.000000,0.267766,34.350000,0.000000
5.109375,-0.078758,28.000000,9.000000,57.000000,0.267766,34.350000,0.000000
5.125000,0.068802,28.000000,9.000000,57.000000,0.267766,34.350000,0.000000
5.140625,0.044647,28.000000,9.000000,57.000000,0.267766,34.350000,0.000000
5.156250,-0.009293,28.000000,9.000000,57.000000,0.267766,34.350000,0.000000
5.171875,0.042847,28.000000,9.000000,57.000000,0.267766,34.350000,0.000000
5.187500,0.201843,28.000000,9.000000,56.000000,0.267766,34.350000,0.000000
5.203125,0.323425,28.000000,9.000000,56.000000,0.267766,34.350000,0.000000
5.218750,0.221504,28.000000,9.000000,57.000000,0.267766,34.350000,0.000000
5.234375,-0.159500,28.000000,9.000000,57.000000,0.267766,34.350000,0.000000
5.250000,-0.658646,28.000000,9.000000,56.000000,0.267766,34.350000,0.000000
5.265625,-0.992424,28.000000,9.000000,56.000000,0.267766,34.350000,0.000000
5.281250,-0.987343,28.000000,9.000000,57.000000,0.267766,34.350000,0.000000
5.296875,-0.718163,28.000000,9.000000,57.000000,0.267766,34.350000,0.000000
5.312500,-0.509644,28.000000,9.000000,56.000000,0.267766,34.350000,0.000000
5.328125,-0.724350,28.000000,9.000000,56.000000,0.267766,34.350000,0.000000
5.343750,-1.469322,28.000000,9.000000,56.000000,0.267766,34.350000,0.000000
5.359375,-2.475983,28.000000,9.000000,56.000000,0.267766,34.350000,0.000000
5.375000,-3.189278,28.000000,9.000000,56.000000,0.267766,34.350000,0.000000
5.390625,-3.074036,28.000000,9.000000,56.000000,0.267766,34.350000,0.000000
5.406250,-1.916931,28.000000,9.000000,57.000000,0.267766,34.350000,0.000000
5.421875,-0.035347,28.000000,9.000000,57.000000,0.267766,34.350000,0.000000
5.437500,1.939613,28.000000,9.000000,57.000000,0.267766,34.350000,0.000000
5.453125,3.362793,28.000000,9.000000,57.000000,0.267766,34.350000,0.000000
5.468750,3.865356,28.000000,9.000000,56.000000,0.267766,34.350000,0.000000
5.484375,3.514687,28.000000,9.000000,56.000000,0.267766,34.350000,0.000000
5.500000,2.675331,28.000000,9.000000,57.000000,0.267766,34.350000,0.000000
5.515625,1.761993,28.000000,9.000000,57.000000,0.267766,34.350000,0.000000
5.531250,1.030075,28.000000,9.000000,56.000000,0.267766,34.350000,0.000000
5.546875,0.521790,28.000000,9.000000,56.000000,0.267766,34.350000,0.000000
5.562500,0.143028,28.000000,9.000000,57.000000,0.267766,34.350000,0.000000
5.578125,-0.170036,28.000000,9.000000,57.000000,0.267766,34.350000,0.000000
5.593750,-0.342957,28.000000,9.000000,57.000000,0.267766,34.350000,0.000000
5.609375,-0.247612,28.000000,9.000000,57.000000,0.267766,34.350000,0.000000
5.625000,0.194405,28.000000,9.000000,57.000000,0.267766,34.350000,0.000000
5.640625,0.892281,28.000000,9.000000,57.000000,0.267766,34.350000,0.000000
5.656250,1.580345,28.000000,9.000000,56.000000,0.267766,34.350000,0.000000
5.671875,1.950058,28.000000,9.000000,56.000000,0.267766,34.350000,0.000000
5.687500,1.800194,28.000000,9.000000,57.000000,0.267766,34.350000,0.000000
5.703125,1.176781,28.000000,9.000000,57.000000,0.267766,34.350000,0.000000
5.718750,0.364616,28.000000,9.000000,56.000000,0.267766,34.350000,0.000000
5.734375,-0.270813,28.000000,9.000000,56.000000,0.267766,34.350000,0.000000
5.750000,-0.499451,28.000000,9.000000,57.000000,0.267766,34.350000,0.000000
5.765625,-0.249435,28.000000,9.000000,57.000000,0.267766,34.350000,0.000000
5.781250,0.293762,28.000000,9.000000,56.000000,0.267766,34.350000,0.000000
5.796875,0.864517,28.000000,9.000000,56.000000,0.267766,34.350000,0.000000
5.812500,1.193405,28.000000,9.000000,56.000000,0.267766,34.350000,0.000000
5.828125,1.228104,28.000000,9.000000,56.000000,0.267766,34.350000,0.000000
5.843750,1.046661,28.000000,9.000000,56.000000,0.267766,34.350000,0.000000
5.859375,0.836479,28.000000,9.000000,56.000000,0.267766,34.350000,0.000000
5.875000,0.729698,28.000000,9.000000,56.000000,0.267766,34.350000,0.000000
5.890625,0.742073,28.000000,9.000000,56.000000,0.267766,34.350000,0.000000
5.906250,0.759232,28.000000,9.000000,56.000000,0.267766,34.350000,0.000000
5.921875,0.666130,28.000000,9.000000,56.000000,0.267766,34.350000,0.000000
5.937500,0.477097,28.000000,8.000000,57.000000,0.267766,34.350000,0.000000
5.953125,0.329216,28.000000,8.000000,57.000000,0.267766,34.350000,0.000000
5.968750,0.377197,28.000000,9.000000,57.000000,0.267766,34.350000,0.000000
5.984375,0.672821,28.000000,9.000000,57.000000,0.267766,34.350000,0.000000
6.000000,1.094315,28.000000,8.000000,57.000000,0.267766,34.350000,0.000000
6.015625,1.455589,28.000000,8.000000,57.000000,0.267766,34.350000,0.000000
6.031250,1.545731,28.000000,9.000000,56.000000,0.267766,34.350000,0.000000
6.046875,1.344101,28.000000,9.000000,56.000000,0.267766,34.350000,0.000000
6.062500,0.940811,27.000000,9.000000,56.000000,0.267766,34.350000,0.000000
6.078125,0.428391,27.000000,9.000000,56.000000,0.267766,34.350000,0.000000
6.093750,-0.139015,28.000000,9.000000,56.000000,0.267766,34.350000,0.000000
6.109375,-0.843575,28.000000,9.000000,56.000000,0.267766,34.350000,0.000000
6.125000,-1.790062,28.000000,9.000000,56.000000,0.267766,34.350000,0.000000
6.140625,-3.006042,28.000000,9.000000,56.000000,0.267766,34.350000,0.000000
6.156250,-4.392303,28.000000,9.000000,56.000000,0.267766,34.350000,0.000000
6.171875,-5.750656,28.000000,9.000000,56.000000,0.267766,34.350000,0.000000
6.187500,-6.902657,28.000000,9.000000,57.000000,0.267766,34.350000,0.000000
6.203125,-7.783623,28.000000,9.000000,57.000000,0.267766,34.350000,0.000000
6.218750,-8.412910,28.000000,9.000000,56.000000,0.267766,34.350000,0.000000
6.234375,-8.807938,28.000000,9.000000,56.000000,0.267766,34.350000,0.000000
6.250000,-8.953026,28.000000,9.000000,57.000000,0.266485,34.350000,0.000000
6.265625,-8.741348,28.000000,9.000000,57.000000,0.266485,34.350000,0.000000
6.281250,-8.029098,28.000000,9.000000,57.000000,0.266485,34.350000,0.000000
6.296875,-6.698921,28.000000,9.000000,57.000000,0.266485,34.350000,0.000000
6.312500,-4.777695,28.000000,9.000000,57.000000,0.266485,34.350000,0.000000
6.328125,-2.439537,28.000000,9.000000,57.000000,0.266485,34.350000,0.000000
6.343750,-0.031525,28.000000,9.000000,56.000000,0.266485,34.350000,0.000000
6.359375,2.029999,28.000000,9.000000,56.000000,0.266485,34.350000,0.000000
6.375000,3.351662,28.000000,9.000000,56.000000,0.266485,34.350000,0.000000
6.390625,3.759277,28.000000,9.000000,56.000000,0.266485,34.350000,0.000000
6.406250,3.333389,28.000000,9.000000,56.000000,0.266485,34.350000,0.000000
6.421875,2.424065,28.000000,9.000000,56.000000,0.266485,34.350000,0.000000
6.437500,1.598404,28.000000,9.000000,56.000000,0.266485,34.350000,0.000000
6.453125,1.313919,28.000000,9.000000,56.000000,0.266485,34.350000,0.000000
6.468750,1.746925,28.000000,9.000000,57.000000,0.266485,34.350000,0.000000
6.484375,2.706375,28.000000,9.000000,57.000000,0.266485,34.350000,0.000000
6.500000,3.700653,28.000000,9.000000,56.000000,0.267766,34.350000,0.000000
6.515625,4.189606,28.000000,9.000000,56.000000,0.267766,34.350000,0.000000
6.531250,3.872597,28.000000,9.000000,57.000000,0.267766,34.350000,0.000000
6.546875,2.827843,28.000000,9.000000,57.000000,0.267766,34.350000,0.000000
6.562500,1.483299,28.000000,9.000000,57.000000,0.267766,34.350000,0.000000
6.578125,0.435951,28.000000,9.000000,57.000000,0.267766,34.350000,0.000000
6.593750,0.152679,28.000000,9.000000,57.000000,0.267766,34.350000,0.000000
6.609375,0.777367,28.000000,9.000000,57.000000,0.267766,34.350000,0.000000
6.625000,2.048836,28.000000,9.000000,56.000000,0.267766,34.350000,0.000000
6.640625,3.474487,28.000000,9.000000,56.000000,0.267766,34.350000,0.000000
6.656250,4.516960,28.000000,9.000000,56.000000,0.267766,34.350000,0.000000
6.671875,4.839607,28.000000,9.000000,56.000000,0.267766,34.350000,0.000000
6.687500,4.390892,28.000000,9.000000,56.000000,0.267766,34.350000,0.000000
6.703125,3.374298,28.000000,9.000000,56.000000,0.267766,34.350000,0.000000
6.718750,2.076210,28.000000,9.000000,56.000000,0.267766,34.350000,0.000000
6.734375,0.713089,28.000000,9.000000,56.000000,0.267766,34.350000,0.000000
6.750000,-0.605980,28.000000,9.000000,57.000000,0.267766,34.350000,0.000000
6.765625,-1.830917,28.000000,9.000000,57.000000,0.267766,34.350000,0.000000
6.781250,-2.896462,28.000000,9.000000,57.000000,0.267766,34.350000,0.000000
6.796875,-3.726845,28.000000,9.000000,57.000000,0.267766,34.350000,0.000000
6.812500,-4.245789,28.000000,9.000000,57.000000,0.267766,34.350000,0.000000
6.828125,-4.491035,28.000000,9.000000,57.000000,0.267766,34.350000,0.000000
6.843750,-4.616959,28.000000,9.000000,56.000000,0.267766,34.350000,0.000000
6.859375,-4.789932,28.000000,9.000000,56.000000,0.267766,34.350000,0.000000
6.875000,-5.025024,28.000000,9.000000,57.000000,0.267766,34.350000,0.000000
6.890625,-5.148705,28.000000,9.000000,57.000000,0.267766,34.350000,0.000000
6.906250,-4.841896,28.000000,9.000000,56.000000,0.267766,34.350000,0.000000
6.921875,-3.921707,28.000000,9.000000,56.000000,0.267766,34.350000,0.000000
6.937500,-2.449974,28.000000,9.000000,57.000000,0.267766,34.350000,0.000000
6.953125,-0.707344,28.000000,9.000000,57.000000,0.267766,34.350000,0.000000
6.968750,0.893837,28.000000,9.000000,57.000000,0.267766,34.350000,0.000000
6.984375,2.099434,28.000000,9.000000,57.000000,0.267766,34.350000,0.000000
7.000000,2.878441,28.000000,9.000000,57.000000,0.267766,34.350000,0.000000
7.015625,3.302406,28.000000,9.000000,57.000000,0.267766,34.350000,0.000000
7.031250,3.442978,28.000000,9.000000,57.000000,0.267766,34.350000,0.000000
7.046875,3.236450,28.000000,9.000000,57.000000,0.267766,34.350000,0.000000
7.062500,2.566833,28.000000,9.000000,57.000000,0.267766,34.350000,0.000000
7.078125,1.397331,28.000000,9.000000,57.000000,0.267766,34.350000,0.000000
7.093750,-0.076546,28.000000,9.000000,56.000000,0.267766,34.350000,0.000000
7.109375,-1.520111,28.000000,9.000000,56.000000,0.267766,34.350000,0.000000
7.125000,-2.587959,28.000000,9.000000,57.000000,0.267766,34.350000,0.000000
7.140625,-3.126549,28.000000,9.000000,57.000000,0.267766,34.350000,0.000000
7.156250,-3.198265,28.000000,9.000000,56.000000,0.267766,34.350000,0.000000
7.171875,-3.005112,28.000000,9.000000,56.000000,0.267766,34.350000,0.000000
7.187500,-2.722595,28.000000,9.000000,57.000000,0.267766,34.350000,0.000000
7.203125,-2.314171,28.000000,9.000000,57.000000,0.267766,34.350000,0.000000
7.218750,-1.600876,28.000000,9.000000,57.000000,0.267766,34.350000,0.000000
7.234375,-0.446716,28.000000,9.000000,57.000000,0.267766,34.350000,0.000000
7.250000,1.132927,28.000000,9.000000,57.000000,0.266485,34.350000,0.000000
7.265625,2.844826,28.000000,9.000000,57.000000,0.266485,34.350000,0.000000
7.281250,4.304352,28.000000,9.000000,57.000000,0.266485,34.350000,0.000000
7.296875,5.144134,28.000000,9.000000,57.000000,0.266485,34.350000,0.000000
7.312500,5.204254,28.000000,9.000000,57.000000,0.266485,34.350000,0.000000
7.328125,4.535248,28.000000,9.000000,57.000000,0.266485,34.350000,0.000000
7.343750,3.330101,28.000000,9.000000,57.000000,0.266485,34.350000,0.000000
7.359375,1.811233,28.000000,9.000000,57.000000,0.266485,34.350000,0.000000
7.375000,0.223465,28.000000,9.000000,57.000000,0.266485,34.350000,0.000000
7.390625,-1.125977,28.000000,9.000000,57.000000,0.266485,34.350000,0.000000
7.406250,-1.905647,28.000000,9.000000,56.000000,0.266485,34.350000,0.000000
7.421875,-1.804344,28.000000,9.000000,56.000000,0.266485,34.350000,0.000000
7.437500,-0.756226,28.000000,9.000000,56.000000,0.266485,34.350000,0.000000
7.453125,0.892563,28.000000,9.000000,56.000000,0.266485,34.350000,0.000000
7.468750,2.448967,28.000000,9.000000,56.000000,0.266485,34.350000,0.000000
7.484375,3.121735,28.000000,9.000000,56.000000,0.266485,34.350000,0.000000
7.500000,2.494041,27.000000,9.000000,56.000000,0.266485,34.350000,0.000000
7.515625,0.743805,27.000000,9.000000,56.000000,0.266485,34.350000,0.000000
7.531250,-1.332931,28.000000,9.000000,56.000000,0.266485,34.350000,0.000000
7.546875,-2.827797,28.000000,9.000000,56.000000,0.266485,34.350000,0.000000
7.562500,-3.116646,28.000000,9.000000,57.000000,0.266485,34.350000,0.000000
7.578125,-2.254791,28.000000,9.000000,57.000000,0.266485,34.350000,0.000000
7.593750,-0.774292,28.000000,9.000000,57.000000,0.266485,34.350000,0.000000
7.609375,0.643158,28.000000,9.000000,57.000000,0.266485,34.350000,0.000000
7.625000,1.511009,28.000000,9.000000,57.000000,0.266485,34.350000,0.000000
7.640625,1.696434,28.000000,9.000000,57.000000,0.266485,34.350000,0.000000
7.656250,1.321907,28.000000,9.000000,57.000000,0.266485,34.350000,0.000000
7.671875,0.606270,28.000000,9.000000,57.000000,0.266485,34.350000,0.000000
7.687500,-0.346649,28.000000,9.000000,57.000000,0.266485,34.350000,0.000000
7.703125,-1.437492,28.000000,9.000000,57.000000,0.266485,34.350000,0.000000
7.718750,-2.541145,28.000000,9.000000,57.000000,0.266485,34.350000,0.000000
7.734375,-3.457222,28.000000,9.000000,57.000000,0.266485,34.350000,0.000000
7.750000,-3.952454,28.000000,9.000000,56.000000,0.266485,34.350000,0.000000
7.765625,-3.832626,28.000000,9.000000,56.000000,0.266485,34.350000,0.000000
7.781250,-3.039680,28.000000,9.000000,56.000000,0.266485,34.350000,0.000000
7.796875,-1.667587,28.000000,9.000000,56.000000,0.266485,34.350000,0.000000
7.812500,0.060257,28.000000,9.000000,56.000000,0.266485,34.350000,0.000000
7.828125,1.769333,28.000000,9.000000,56.000000,0.266485,34.350000,0.000000
7.843750,3.074570,28.000000,9.000000,56.000000,0.266485,34.350000,0.000000
7.859375,3.604057,28.000000,9.000000,56.000000,0.266485,34.350000,0.000000
7.875000,3.224564,28.000000,9.000000,57.000000,0.266485,34.350000,0.000000
7.890625,2.168274,28.000000,9.000000,57.000000,0.266485,34.350000,0.000000
7.906250,0.935387,28.000000,9.000000,57.000000,0.266485,34.350000,0.000000
7.921875,0.121994,28.000000,9.000000,57.000000,0.266485,34.350000,0.000000
7.937500,0.063980,28.000000,8.000000,57.000000,0.266485,34.350000,0.000000
7.953125,0.629356,28.000000,8.000000,57.000000,0.266485,34.350000,0.000000
7.968750,1.361923,28.000000,8.000000,57.000000,0.266485,34.350000,0.000000
7.984375,1.732689,28.000000,8.000000,57.000000,0.266485,34.350000,0.000000
8.000000,1.499718,28.000000,9.000000,57.000000,0.267766,34.330000,0.000000
8.015625,0.796112,28.000000,9.000000,57.000000,0.267766,34.330000,0.000000
8.031250,0.004211,27.000000,9.000000,57.000000,0.267766,34.330000,0.000000
8.046875,-0.557655,27.000000,9.000000,57.000000,0.267766,34.330000,0.000000
8.062500,-0.776924,28.000000,9.000000,56.000000,0.267766,34.330000,0.000000
8.078125,-0.862122,28.000000,9.000000,56.000000,0.267766,34.330000,0.000000
8.093750,-1.086594,28.000000,9.000000,56.000000,0.267766,34.330000,0.000000
8.109375,-1.527664,28.000000,9.000000,56.000000,0.267766,34.330000,0.000000
8.125000,-2.053841,28.000000,9.000000,56.000000,0.267766,34.330000,0.000000
8.140625,-2.367699,28.000000,9.000000,56.000000,0.267766,34.330000,0.000000
8.156250,-2.212143,28.000000,9.000000,56.000000,0.267766,34.330000,0.000000
8.171875,-1.527809,28.000000,9.000000,56.000000,0.267766,34.330000,0.000000
8.187500,-0.509148,28.000000,9.000000,57.000000,0.267766,34.330000,0.000000
8.203125,0.524147,28.000000,9.000000,57.000000,0.267766,34.330000,0.000000
8.218750,1.319809,28.000000,9.000000,57.000000,0.267766,34.330000,0.000000
8.234375,1.772629,28.000000,9.000000,57.000000,0.267766,34.330000,0.000000
8.250000,1.943695,28.000000,8.000000,57.000000,0.266485,34.330000,0.000000
8.265625,1.984779,28.000000,8.000000,57.000000,0.266485,34.330000,0.000000
8.281250,2.027588,28.000000,8.000000,57.000000,0.266485,34.330000,0.000000
8.296875,2.082924,28.000000,8.000000,57.000000,0.266485,34.330000,0.000000
8.312500,2.048546,28.000000,8.000000,57.000000,0.266485,34.330000,0.000000
8.328125,1.789177,28.000000,8.000000,57.000000,0.266485,34.330000,0.000000
8.343750,1.240356,28.000000,9.000000,57.000000,0.266485,34.330000,0.000000
8.359375,0.442459,28.000000,9.000000,57.000000,0.266485,34.330000,0.000000
8.375000,-0.453117,28.000000,9.000000,56.000000,0.266485,34.330000,0.000000
8.390625,-1.265312,28.000000,9.000000,56.000000,0.266485,34.330000,0.000000
8.406250,-1.903793,28.000000,9.000000,56.000000,0.266485,34.330000,0.000000
8.421875,-2.366684,28.000000,9.000000,56.000000,0.266485,34.330000,0.000000
8.437500,-2.722763,28.000000,9.000000,56.000000,0.266485,34.330000,0.000000
8.453125,-3.010513,28.000000,9.000000,56.000000,0.266485,34.330000,0.000000
8.468750,-3.194992,28.000000,9.000000,57.000000,0.266485,34.330000,0.000000
8.484375,-3.141556,28.000000,9.000000,57.000000,0.266485,34.330000,0.000000
8.500000,-2.731010,28.000000,8.000000,57.000000,0.267766,34.330000,0.000000
8.515625,-1.934898,28.000000,8.000000,57.000000,0.267766,34.330000,0.000000
8.531250,-0.897842,28.000000,9.000000,56.000000,0.267766,34.330000,0.000000
8.546875,0.114998,28.000000,9.000000,56.000000,0.267766,34.330000,0.000000
8.562500,0.884781,28.000000,9.000000,56.000000,0.267766,34.330000,0.000000
8.578125,1.271927,28.000000,9.000000,56.000000,0.267766,34.330000,0.000000
8.593750,1.318451,28.000000,9.000000,57.000000,0.267766,34.330000,0.000000
8.609375,1.204575,28.000000,9.000000,57.000000,0.267766,34.330000,0.000000
8.625000,1.101685,28.000000,9.000000,57.000000,0.267766,34.330000,0.000000
8.640625,1.111710,28.000000,9.000000,57.000000,0.267766,34.330000,0.000000
8.656250,1.208031,28.000000,9.000000,57.000000,0.267766,34.330000,0.000000
8.671875,1.247665,28.000000,9.000000,57.000000,0.267766,34.330000,0.000000
8.687500,1.085709,28.000000,9.000000,57.000000,0.267766,34.330000,0.000000
8.703125,0.605698,28.000000,9.000000,57.000000,0.267766,34.330000,0.000000
8.718750,-0.209663,28.000000,9.000000,57.000000,0.267766,34.330000,0.000000
8.734375,-1.245186,28.000000,9.000000,57.000000,0.267766,34.330000,0.000000
8.750000,-2.290764,28.000000,9.000000,56.000000,0.266485,34.330000,0.000000
8.765625,-3.117065,28.000000,9.000000,56.000000,0.266485,34.330000,0.000000
8.781250,-3.472458,28.000000,9.000000,57.000000,0.266485,34.330000,0.000000
8.796875,-3.201332,28.000000,9.000000,57.000000,0.266485,34.330000,0.000000
8.812500,-2.326080,28.000000,9.000000,57.000000,0.266485,34.330000,0.000000
8.828125,-1.057396,28.000000,9.000000,57.000000,0.266485,34.330000,0.000000
8.843750,0.254387,28.000000,8.000000,57.000000,0.266485,34.330000,0.000000
8.859375,1.269867,28.000000,8.000000,57.000000,0.266485,34.330000,0.000000
8.875000,1.814400,28.000000,9.000000,57.000000,0.266485,34.330000,0.000000
8.890625,1.970741,28.000000,9.000000,57.000000,0.266485,34.330000,0.000000
8.906250,1.996254,28.000000,9.000000,57.000000,0.266485,34.330000,0.000000
8.921875,2.126274,28.000000,9.000000,57.000000,0.266485,34.330000,0.000000
8.937500,2.394310,28.000000,8.000000,56.000000,0.266485,34.330000,0.000000
8.953125,2.594475,28.000000,8.000000,56.000000,0.266485,34.330000,0.000000
8.968750,2.454163,28.000000,8.000000,57.000000,0.266485,34.330000,0.000000
8.984375,1.776688,28.000000,8.000000,57.000000,0.266485,34.330000,0.000000
9.000000,0.675293,28.000000,8.000000,57.000000,0.266485,34.310000,0.000000
9.015625,-0.544601,28.000000,8.000000,57.000000,0.266485,34.310000,0.000000
9.031250,-1.508316,28.000000,9.000000,57.000000,0.266485,34.310000,0.000000
9.046875,-2.062416,28.000000,9.000000,57.000000,0.266485,34.310000,0.000000
9.062500,-2.314560,28.000000,9.000000,57.000000,0.266485,34.310000,0.000000
9.078125,-2.484291,28.000000,9.000000,57.000000,0.266485,34.310000,0.000000
9.093750,-2.674248,28.000000,9.000000,56.000000,0.266485,34.310000,0.000000
9.109375,-2.720406,28.000000,9.000000,56.000000,0.266485,34.310000,0.000000
9.125000,-2.332550,28.000000,9.000000,56.000000,0.266485,34.310000,0.000000
9.140625,-1.328682,28.000000,9.000000,56.000000,0.266485,34.310000,0.000000
9.156250,0.125893,28.000000,9.000000,57.000000,0.266485,34.310000,0.000000
9.171875,1.516052,28.000000,9.000000,57.000000,0.266485,34.310000,0.000000
9.187500,2.317482,28.000000,9.000000,57.000000,0.266485,34.310000,0.000000
9.203125,2.254410,28.000000,9.000000,57.000000,0.266485,34.310000,0.000000
9.218750,1.497200,28.000000,9.000000,56.000000,0.266485,34.310000,0.000000
9.234375,0.543419,28.000000,9.000000,56.000000,0.266485,34.310000,0.000000
9.250000,-0.061394,28.000000,9.000000,57.000000,0.265204,34.310000,0.000000
9.265625,-0.112648,28.000000,9.000000,57.000000,0.265204,34.310000,0.000000
9.281250,0.278046,28.000000,9.000000,57.000000,0.265204,34.310000,0.000000
9.296875,0.729660,28.000000,9.000000,57.000000,0.265204,34.310000,0.000000
9.312500,0.938736,28.000000,9.000000,57.000000,0.265204,34.310000,0.000000
9.328125,0.835434,28.000000,9.000000,57.000000,0.265204,34.310000,0.000000
9.343750,0.601929,28.000000,9.000000,56.000000,0.265204,34.310000,0.000000
9.359375,0.470009,28.000000,9.000000,56.000000,0.265204,34.310000,0.000000
9.375000,0.538986,28.000000,9.000000,57.000000,0.265204,34.310000,0.000000
9.390625,0.661354,28.000000,9.000000,57.000000,0.265204,34.310000,0.000000
9.406250,0.616760,28.000000,9.000000,56.000000,0.265204,34.310000,0.000000
9.421875,0.264999,28.000000,9.000000,56.000000,0.265204,34.310000,0.000000
9.437500,-0.292809,28.000000,9.000000,56.000000,0.265204,34.310000,0.000000
9.453125,-0.819656,28.000000,9.000000,56.000000,0.265204,34.310000,0.000000
9.468750,-1.015533,28.000000,9.000000,56.000000,0.265204,34.310000,0.000000
9.484375,-0.746834,28.000000,9.000000,56.000000,0.265204,34.310000,0.000000
9.500000,-0.124680,28.000000,9.000000,56.000000,0.266485,34.310000,0.000000
9.515625,0.448067,28.000000,9.000000,56.000000,0.266485,34.310000,0.000000
9.531250,0.540710,28.000000,9.000000,57.000000,0.266485,34.310000,0.000000
9.546875,-0.082886,28.000000,9.000000,57.000000,0.266485,34.310000,0.000000
9.562500,-1.288040,28.000000,9.000000,57.000000,0.266485,34.310000,0.000000
9.578125,-2.611916,28.000000,9.000000,57.000000,0.266485,34.310000,0.000000
9.593750,-3.487373,28.000000,9.000000,57.000000,0.266485,34.310000,0.000000
9.609375,-3.552048,28.000000,9.000000,57.000000,0.266485,34.310000,0.000000
9.625000,-2.823120,28.000000,9.000000,57.000000,0.266485,34.310000,0.000000
9.640625,-1.646698,28.000000,9.000000,57.000000,0.266485,34.310000,0.000000
9.656250,-0.512871,28.000000,9.000000,57.000000,0.266485,34.310000,0.000000
9.671875,0.188515,28.000000,9.000000,57.000000,0.266485,34.310000,0.000000
9.687500,0.277573,28.000000,9.000000,57.000000,0.266485,34.310000,0.000000
9.703125,-0.197189,28.000000,9.000000,57.000000,0.266485,34.310000,0.000000
9.718750,-1.053154,28.000000,9.000000,57.000000,0.266485,34.310000,0.000000
9.734375,-2.076630,28.000000,9.000000,57.000000,0.266485,34.310000,0.000000
9.750000,-3.025711,28.000000,9.000000,56.000000,0.266485,34.310000,0.000000
9.765625,-3.685898,28.000000,9.000000,56.000000,0.266485,34.310000,0.000000
9.781250,-3.860092,28.000000,9.000000,57.000000,0.266485,34.310000,0.000000
9.796875,-3.482429,28.000000,9.000000,57.000000,0.266485,34.310000,0.000000
9.812500,-2.637497,28.000000,9.000000,57.000000,0.266485,34.310000,0.000000
9.828125,-1.547600,28.000000,9.000000,57.000000,0.266485,34.310000,0.000000
9.843750,-0.506645,28.000000,9.000000,56.000000,0.266485,34.310000,0.000000
9.859375,0.267685,28.000000,9.000000,56.000000,0.266485,34.310000,0.000000
9.875000,0.730782,28.000000,8.000000,57.000000,0.266485,34.310000,0.000000
9.890625,0.846458,28.000000,8.000000,57.000000,0.266485,34.310000,0.000000
9.906250,0.620560,28.000000,8.000000,57.000000,0.266485,34.310000,0.000000
9.921875,-0.011841,28.000000,8.000000,57.000000,0.266485,34.310000,0.000000
9.937500,-1.013428,29.000000,8.000000,58.000000,0.266485,34.310000,0.000000
9.953125,-2.175941,29.000000,8.000000,58.000000,0.266485,34.310000,0.000000
9.968750,-3.178215,29.000000,7.000000,59.000000,0.266485,34.310000,0.000000
9.984375,-3.670540,29.000000,7.000000,59.000000,0.266485,34.310000,0.000000
10.000000,-3.490860,28.000000,8.000000,58.000000,0.265204,34.330000,0.000000
10.015625,-2.774948,28.000000,8.000000,58.000000,0.265204,34.330000,0.000000
10.031250,-1.825798,28.000000,9.000000,56.000000,0.265204,34.330000,0.000000
10.046875,-0.994667,28.000000,9.000000,56.000000,0.265204,34.330000,0.000000
10.062500,-0.458916,27.000000,11.000000,54.000000,0.265204,34.330000,0.000000
10.078125,-0.191170,27.000000,11.000000,54.000000,0.265204,34.330000,0.000000
10.093750,-0.037910,28.000000,11.000000,54.000000,0.265204,34.330000,0.000000
10.109375,0.138847,28.000000,11.000000,54.000000,0.265204,34.330000,0.000000
10.125000,0.418488,29.000000,11.000000,54.000000,0.265204,34.330000,0.000000
10.140625,0.820511,29.000000,11.000000,54.000000,0.265204,34.330000,0.000000
10.156250,1.355927,29.000000,11.000000,54.000000,0.265204,34.330000,0.000000
10.171875,2.022224,29.000000,11.000000,54.000000,0.265204,34.330000,0.000000
10.187500,2.803177,29.000000,10.000000,56.000000,0.265204,34.330000,0.000000
10.203125,3.630554,29.000000,10.000000,56.000000,0.265204,34.330000,0.000000
10.218750,4.432648,28.000000,10.000000,56.000000,0.265204,34.330000,0.000000
10.234375,5.109886,28.000000,10.000000,56.000000,0.265204,34.330000,0.000000
10.250000,5.633087,28.000000,9.000000,57.000000,0.266485,34.330000,0.000000
10.265625,5.889122,28.000000,9.000000,57.000000,0.266485,34.330000,0.000000
10.281250,5.794998,28.000000,9.000000,57.000000,0.266485,34.330000,0.000000
10.296875,5.271118,28.000000,9.000000,57.000000,0.266485,34.330000,0.000000
10.312500,4.316498,28.000000,10.000000,57.000000,0.266485,34.330000,0.000000
10.328125,3.088203,28.000000,10.000000,57.000000,0.266485,34.330000,0.000000
10.343750,1.846214,27.000000,11.000000,55.000000,0.266485,34.330000,0.000000
10.359375,0.836952,27.000000,11.000000,55.000000,0.266485,34.330000,0.000000
10.375000,0.172783,28.000000,11.000000,55.000000,0.266485,34.330000,0.000000
10.390625,-0.253250,28.000000,11.000000,55.000000,0.266485,34.330000,0.000000
10.406250,-0.587280,29.000000,10.000000,56.000000,0.266485,34.330000,0.000000
10.421875,-0.957848,29.000000,10.000000,56.000000,0.266485,34.330000,0.000000
10.437500,-1.345703,29.000000,10.000000,57.000000,0.266485,34.330000,0.000000
10.453125,-1.663650,29.000000,10.000000,57.000000,0.266485,34.330000,0.000000
10.468750,-1.812500,30.000000,9.000000,58.000000,0.266485,34.330000,0.000000
10.484375,-1.831276,30.000000,9.000000,58.000000,0.266485,34.330000,0.000000
10.500000,-1.857567,41.000000,1.000000,73.000000,0.265204,34.330000,0.000000
10.515625,-2.047394,41.000000,1.000000,73.000000,0.265204,34.330000,0.000000
10.531250,-2.350243,44.000000,0.000000,78.000000,0.265204,34.330000,0.000000
10.546875,-2.558685,44.000000,0.000000,78.000000,0.265204,34.330000,0.000000
10.562500,-2.424942,29.000000,8.000000,67.000000,0.265204,34.330000,0.000000
10.578125,-1.843414,29.000000,8.000000,67.000000,0.265204,34.330000,0.000000
10.593750,-0.959274,31.000000,9.000000,66.000000,0.265204,34.330000,0.000000
10.609375,-0.106949,31.000000,9.000000,66.000000,0.265204,34.330000,0.000000
10.625000,0.391243,18.000000,21.000000,44.000000,0.265204,34.330000,0.000000
10.640625,0.367508,18.000000,21.000000,44.000000,0.265204,34.330000,0.000000
10.656250,-0.119499,19.000000,27.000000,34.000000,0.265204,34.330000,0.000000
10.671875,-0.824432,19.000000,27.000000,34.000000,0.265204,34.330000,0.000000
10.687500,-1.479256,41.000000,29.000000,34.000000,0.265204,34.330000,0.000000
10.703125,-1.885185,41.000000,29.000000,34.000000,0.265204,34.330000,0.000000
10.718750,-1.982040,39.000000,20.000000,40.000000,0.265204,34.330000,0.000000
10.734375,-1.832397,39.000000,20.000000,40.000000,0.265204,34.330000,0.000000
10.750000,-1.566940,35.000000,17.000000,42.000000,0.265204,34.330000,0.000000
10.765625,-1.320450,35.000000,17.000000,42.000000,0.265204,34.330000,0.000000
10.781250,-1.126854,27.000000,14.000000,55.000000,0.265204,34.330000,0.000000
10.796875,-0.929153,27.000000,14.000000,55.000000,0.265204,34.330000,0.000000
10.812500,-0.574074,21.000000,13.000000,60.000000,0.265204,34.330000,0.000000
10.828125,-0.007118,21.000000,13.000000,60.000000,0.265204,34.330000,0.000000
10.843750,0.709061,18.000000,14.000000,59.000000,0.265204,34.330000,0.000000
10.859375,1.392250,18.000000,14.000000,59.000000,0.265204,34.330000,0.000000
10.875000,1.847961,26.000000,19.000000,53.000000,0.265204,34.330000,0.000000
10.890625,1.953316,26.000000,19.000000,53.000000,0.265204,34.330000,0.000000
10.906250,1.792557,31.000000,20.000000,50.000000,0.265204,34.330000,0.000000
10.921875,1.614586,31.000000,20.000000,50.000000,0.265204,34.330000,0.000000
10.937500,1.667923,36.000000,23.000000,50.000000,0.265204,34.330000,0.000000
10.953125,2.129364,36.000000,23.000000,50.000000,0.265204,34.330000,0.000000
10.968750,2.970650,35.000000,22.000000,51.000000,0.265204,34.330000,0.000000
10.984375,4.008232,35.000000,22.000000,51.000000,0.265204,34.330000,0.000000
11.000000,4.997376,30.000000,18.000000,53.000000,0.263922,34.290000,0.000000
11.015625,5.717415,30.000000,18.000000,53.000000,0.263922,34.290000,0.000000
11.031250,5.979607,29.000000,17.000000,53.000000,0.263922,34.290000,0.000000
11.046875,5.682121,29.000000,17.000000,53.000000,0.263922,34.290000,0.000000
11.062500,4.867188,29.000000,17.000000,52.000000,0.263922,34.290000,0.000000
11.078125,3.736488,29.000000,17.000000,52.000000,0.263922,34.290000,0.000000
11.093750,2.680466,30.000000,17.000000,52.000000,0.263922,34.290000,0.000000
11.109375,2.111618,30.000000,17.000000,52.000000,0.263922,34.290000,0.000000
11.125000,2.276337,29.000000,18.000000,50.000000,0.263922,34.290000,0.000000
11.140625,3.100403,29.000000,18.000000,50.000000,0.263922,34.290000,0.000000
11.156250,4.221558,24.000000,20.000000,49.000000,0.263922,34.290000,0.000000
11.171875,5.294540,24.000000,20.000000,49.000000,0.263922,34.290000,0.000000
11.187500,6.155273,32.000000,20.000000,53.000000,0.263922,34.290000,0.000000
11.203125,6.902130,32.000000,20.000000,53.000000,0.263922,34.290000,0.000000
11.218750,7.772873,32.000000,21.000000,53.000000,0.263922,34.290000,0.000000
11.234375,8.916138,32.000000,21.000000,53.000000,0.263922,34.290000,0.000000
11.250000,10.201508,31.000000,20.000000,53.000000,0.263922,34.290000,0.000000
11.265625,11.286308,31.000000,20.000000,53.000000,0.263922,34.290000,0.000000
11.281250,11.846344,30.000000,20.000000,53.000000,0.263922,34.290000,0.000000
11.296875,11.725662,30.000000,20.000000,53.000000,0.263922,34.290000,0.000000
11.312500,11.041649,30.000000,19.000000,54.000000,0.263922,34.290000,0.000000
11.328125,10.034409,30.000000,19.000000,54.000000,0.263922,34.290000,0.000000
11.343750,8.901489,32.000000,19.000000,55.000000,0.263922,34.290000,0.000000
11.359375,7.616875,32.000000,19.000000,55.000000,0.263922,34.290000,0.000000
11.375000,5.991493,31.000000,20.000000,54.000000,0.263922,34.290000,0.000000
11.390625,3.831741,31.000000,20.000000,54.000000,0.263922,34.290000,0.000000
11.406250,1.139580,30.000000,21.000000,51.000000,0.263922,34.290000,0.000000
11.421875,-1.786972,30.000000,21.000000,51.000000,0.263922,34.290000,0.000000
11.437500,-4.473350,29.000000,21.000000,48.000000,0.263922,34.290000,0.000000
11.453125,-6.460793,29.000000,21.000000,48.000000,0.263922,34.290000,0.000000
11.468750,-7.489571,29.000000,21.000000,48.000000,0.263922,34.290000,0.000000
11.484375,-7.635628,29.000000,21.000000,48.000000,0.263922,34.290000,0.000000
11.500000,-7.234474,31.000000,21.000000,51.000000,0.265204,34.290000,0.000000
11.515625,-6.699333,31.000000,21.000000,51.000000,0.265204,34.290000,0.000000
11.531250,-6.416649,30.000000,21.000000,52.000000,0.265204,34.290000,0.000000
11.546875,-6.552597,30.000000,21.000000,52.000000,0.265204,34.290000,0.000000
11.562500,-7.098953,30.000000,20.000000,52.000000,0.265204,34.290000,0.000000
11.578125,-8.033775,30.000000,20.000000,52.000000,0.265204,34.290000,0.000000
11.593750,-9.292564,30.000000,20.000000,53.000000,0.265204,34.290000,0.000000
11.609375,-10.812515,30.000000,20.000000,53.000000,0.265204,34.290000,0.000000
11.625000,-12.468742,30.000000,19.000000,53.000000,0.265204,34.290000,0.000000
11.640625,-14.038429,30.000000,19.000000,53.000000,0.265204,34.290000,0.000000
11.656250,-15.323944,31.000000,19.000000,54.000000,0.265204,34.290000,0.000000
11.671875,-16.268310,31.000000,19.000000,54.000000,0.265204,34.290000,0.000000
11.687500,-17.052177,31.000000,20.000000,54.000000,0.265204,34.290000,0.000000
11.703125,-17.930252,31.000000,20.000000,54.000000,0.265204,34.290000,0.000000
11.718750,-19.079560,31.000000,20.000000,52.000000,0.265204,34.290000,0.000000
11.734375,-20.328339,31.000000,20.000000,52.000000,0.265204,34.290000,0.000000
11.750000,-21.172012,31.000000,20.000000,51.000000,0.263922,34.290000,0.000000
11.765625,-21.026909,31.000000,20.000000,51.000000,0.263922,34.290000,0.000000
11.781250,-19.555786,31.000000,20.000000,52.000000,0.263922,34.290000,0.000000
11.796875,-17.005547,31.000000,20.000000,52.000000,0.263922,34.290000,0.000000
11.812500,-14.278549,30.000000,20.000000,52.000000,0.263922,34.290000,0.000000
11.828125,-12.817261,30.000000,20.000000,52.000000,0.263922,34.290000,0.000000
11.843750,-14.179955,31.000000,21.000000,53.000000,0.263922,34.290000,0.000000
11.859375,-19.535400,31.000000,21.000000,53.000000,0.263922,34.290000,0.000000
11.875000,-29.220192,30.000000,20.000000,52.000000,0.263922,34.290000,0.000000
11.890625,-42.333572,30.000000,20.000000,52.000000,0.263922,34.290000,0.000000
11.906250,-56.695640,30.000000,20.000000,52.000000,0.263922,34.290000,0.000000
11.921875,-69.295540,30.000000,20.000000,52.000000,0.263922,34.290000,0.000000
11.937500,-76.976250,30.000000,20.000000,52.000000,0.263922,34.290000,0.000000
11.953125,-77.529620,30.000000,20.000000,52.000000,0.263922,34.290000,0.000000
11.968750,-70.230680,31.000000,21.000000,52.000000,0.263922,34.290000,0.000000
11.984375,-56.022324,31.000000,21.000000,52.000000,0.263922,34.290000,0.000000
12.000000,-36.982834,30.000000,21.000000,51.000000,0.262641,34.290000,0.000000
12.015625,-15.526978,30.000000,21.000000,51.000000,0.262641,34.290000,0.000000
12.031250,6.230614,31.000000,21.000000,51.000000,0.262641,34.290000,0.000000
12.046875,26.684174,31.000000,21.000000,51.000000,0.262641,34.290000,0.000000
12.062500,44.584183,31.000000,21.000000,51.000000,0.262641,34.290000,0.000000
12.078125,58.849390,31.000000,21.000000,51.000000,0.262641,34.290000,0.000000
12.093750,68.532974,31.000000,21.000000,52.000000,0.262641,34.290000,0.000000
12.109375,73.155910,31.000000,21.000000,52.000000,0.262641,34.290000,0.000000
12.125000,72.989600,31.000000,21.000000,52.000000,0.262641,34.290000,0.000000
12.140625,69.060650,31.000000,21.000000,52.000000,0.262641,34.290000,0.000000
12.156250,62.877728,31.000000,21.000000,52.000000,0.262641,34.290000,0.000000
12.171875,55.948620,31.000000,21.000000,52.000000,0.262641,34.290000,0.000000
12.187500,49.353725,31.000000,21.000000,52.000000,0.262641,34.290000,0.000000
12.203125,43.600250,31.000000,21.000000,52.000000,0.262641,34.290000,0.000000
12.218750,38.806774,31.000000,21.000000,52.000000,0.262641,34.290000,0.000000
12.234375,34.853560,31.000000,21.000000,52.000000,0.262641,34.290000,0.000000
12.250000,31.562470,31.000000,21.000000,52.000000,0.262641,34.290000,0.000000
12.265625,28.744556,31.000000,21.000000,52.000000,0.262641,34.290000,0.000000
12.281250,26.207218,31.000000,21.000000,52.000000,0.262641,34.290000,0.000000
12.296875,23.703289,31.000000,21.000000,52.000000,0.262641,34.290000,0.000000
12.312500,21.032955,31.000000,21.000000,51.000000,0.262641,34.290000,0.000000
12.328125,18.117900,31.000000,21.000000,51.000000,0.262641,34.290000,0.000000
12.343750,14.957554,31.000000,21.000000,51.000000,0.262641,34.290000,0.000000
12.359375,11.689041,31.000000,21.000000,51.000000,0.262641,34.290000,0.000000
12.375000,8.503365,31.000000,21.000000,52.000000,0.262641,34.290000,0.000000
12.390625,5.586140,31.000000,21.000000,52.000000,0.262641,34.290000,0.000000
12.406250,3.157276,31.000000,21.000000,52.000000,0.262641,34.290000,0.000000
12.421875,1.336685,31.000000,21.000000,52.000000,0.262641,34.290000,0.000000
12.437500,0.160572,31.000000,21.000000,52.000000,0.262641,34.290000,0.000000
12.453125,-0.548347,31.000000,21.000000,52.000000,0.262641,34.290000,0.000000
12.468750,-1.105156,30.000000,20.000000,52.000000,0.262641,34.290000,0.000000
12.484375,-1.923180,30.000000,20.000000,52.000000,0.262641,34.290000,0.000000
12.500000,-3.298721,30.000000,20.000000,52.000000,0.262641,34.290000,0.000000
12.515625,-5.321613,30.000000,20.000000,52.000000,0.262641,34.290000,0.000000
12.531250,-7.794800,30.000000,21.000000,52.000000,0.262641,34.290000,0.000000
12.546875,-10.316254,30.000000,21.000000,52.000000,0.262641,34.290000,0.000000
12.562500,-12.502499,31.000000,21.000000,52.000000,0.262641,34.290000,0.000000
12.578125,-14.104301,31.000000,21.000000,52.000000,0.262641,34.290000,0.000000
12.593750,-15.155643,31.000000,21.000000,52.000000,0.262641,34.290000,0.000000
12.609375,-15.854103,31.000000,21.000000,52.000000,0.262641,34.290000,0.000000
12.625000,-16.451370,31.000000,20.000000,52.000000,0.262641,34.290000,0.000000
12.640625,-17.024006,31.000000,20.000000,52.000000,0.262641,34.290000,0.000000
12.656250,-17.476559,29.000000,20.000000,52.000000,0.262641,34.290000,0.000000
12.671875,-17.595470,29.000000,20.000000,52.000000,0.262641,34.290000,0.000000
12.687500,-17.191628,30.000000,20.000000,52.000000,0.262641,34.290000,0.000000
12.703125,-16.337456,30.000000,20.000000,52.000000,0.262641,34.290000,0.000000
12.718750,-15.265194,32.000000,21.000000,51.000000,0.262641,34.290000,0.000000
12.734375,-14.254074,32.000000,21.000000,51.000000,0.262641,34.290000,0.000000
12.750000,-13.392929,32.000000,21.000000,50.000000,0.261360,34.290000,0.000000
12.765625,-12.523560,32.000000,21.000000,50.000000,0.261360,34.290000,0.000000
12.781250,-11.218468,31.000000,21.000000,50.000000,0.261360,34.290000,0.000000
12.796875,-9.170429,31.000000,21.000000,50.000000,0.261360,34.290000,0.000000
12.812500,-6.370369,31.000000,20.000000,50.000000,0.261360,34.290000,0.000000
12.828125,-3.136944,31.000000,20.000000,50.000000,0.261360,34.290000,0.000000
12.843750,-0.068836,31.000000,21.000000,51.000000,0.261360,34.290000,0.000000
12.859375,2.258396,31.000000,21.000000,51.000000,0.261360,34.290000,0.000000
12.875000,3.501846,32.000000,21.000000,52.000000,0.261360,34.290000,0.000000
12.890625,3.639996,32.000000,21.000000,52.000000,0.261360,34.290000,0.000000
12.906250,2.964130,31.000000,20.000000,52.000000,0.261360,34.290000,0.000000
12.921875,2.000587,31.000000,20.000000,52.000000,0.261360,34.290000,0.000000
12.937500,1.271957,31.000000,20.000000,52.000000,0.261360,34.290000,0.000000
12.953125,1.134781,31.000000,20.000000,52.000000,0.261360,34.290000,0.000000
12.968750,1.663883,30.000000,20.000000,52.000000,0.261360,34.290000,0.000000
12.984375,2.661671,30.000000,20.000000,52.000000,0.261360,34.290000,0.000000
13.000000,3.778301,31.000000,21.000000,52.000000,0.261360,34.250000,0.000000
13.015625,4.668076,31.000000,21.000000,52.000000,0.261360,34.250000,0.000000
13.031250,5.115849,31.000000,21.000000,52.000000,0.261360,34.250000,0.000000
13.046875,5.090431,31.000000,21.000000,52.000000,0.261360,34.250000,0.000000
13.062500,4.686085,31.000000,21.000000,52.000000,0.261360,34.250000,0.000000
13.078125,4.003620,31.000000,21.000000,52.000000,0.261360,34.250000,0.000000
13.093750,3.116028,31.000000,20.000000,51.000000,0.261360,34.250000,0.000000
13.109375,2.076702,31.000000,20.000000,51.000000,0.261360,34.250000,0.000000
13.125000,1.008049,31.000000,20.000000,52.000000,0.261360,34.250000,0.000000
13.140625,0.026924,31.000000,20.000000,52.000000,0.261360,34.250000,0.000000
13.156250,-0.703178,30.000000,21.000000,52.000000,0.261360,34.250000,0.000000
13.171875,-1.137676,30.000000,21.000000,52.000000,0.261360,34.250000,0.000000
13.187500,-1.375488,30.000000,21.000000,52.000000,0.261360,34.250000,0.000000
13.203125,-1.535675,30.000000,21.000000,52.000000,0.261360,34.250000,0.000000
13.218750,-1.668301,31.000000,21.000000,51.000000,0.261360,34.250000,0.000000
13.234375,-1.695938,31.000000,21.000000,51.000000,0.261360,34.250000,0.000000
13.250000,-1.417820,31.000000,21.000000,50.000000,0.262641,34.250000,0.000000
13.265625,-0.767567,31.000000,21.000000,50.000000,0.262641,34.250000,0.000000
13.281250,0.178493,31.000000,21.000000,51.000000,0.262641,34.250000,0.000000
13.296875,1.115013,31.000000,21.000000,51.000000,0.262641,34.250000,0.000000
13.312500,1.749458,31.000000,21.000000,51.000000,0.262641,34.250000,0.000000
13.328125,1.903654,31.000000,21.000000,51.000000,0.262641,34.250000,0.000000
13.343750,1.705399,30.000000,21.000000,50.000000,0.262641,34.250000,0.000000
13.359375,1.392176,30.000000,21.000000,50.000000,0.262641,34.250000,0.000000
13.375000,1.210491,28.000000,22.000000,52.000000,0.262641,34.250000,0.000000
13.390625,1.218431,28.000000,22.000000,52.000000,0.262641,34.250000,0.000000
13.406250,1.249985,25.000000,21.000000,56.000000,0.262641,34.250000,0.000000
13.421875,1.055370,25.000000,21.000000,56.000000,0.262641,34.250000,0.000000
13.437500,0.494768,10.000000,16.000000,61.000000,0.262641,34.250000,0.000000
13.453125,-0.403099,10.000000,16.000000,61.000000,0.262641,34.250000,0.000000
13.468750,-1.435574,12.000000,6.000000,60.000000,0.262641,34.250000,0.000000
13.484375,-2.328581,12.000000,6.000000,60.000000,0.262641,34.250000,0.000000
13.500000,-2.870569,52.000000,5.000000,42.000000,0.262641,34.250000,0.000000
13.515625,-2.969656,52.000000,5.000000,42.000000,0.262641,34.250000,0.000000
13.531250,-2.645580,72.000000,5.000000,36.000000,0.262641,34.250000,0.000000
13.546875,-2.011265,72.000000,5.000000,36.000000,0.262641,34.250000,0.000000
13.562500,-1.219542,60.000000,16.000000,25.000000,0.262641,34.250000,0.000000
13.578125,-0.397879,60.000000,16.000000,25.000000,0.262641,34.250000,0.000000
13.593750,0.442980,47.000000,29.000000,-17.000000,0.262641,34.250000,0.000000
13.609375,1.345921,47.000000,29.000000,-17.000000,0.262641,34.250000,0.000000
13.625000,2.490141,52.000000,35.000000,-25.000000,0.262641,34.250000,0.000000
13.640625,3.897293,52.000000,35.000000,-25.000000,0.262641,34.250000,0.000000
13.656250,5.468901,42.000000,34.000000,-33.000000,0.262641,34.250000,0.000000
13.671875,6.925461,42.000000,34.000000,-33.000000,0.262641,34.250000,0.000000
13.687500,7.849787,36.000000,35.000000,-45.000000,0.262641,34.250000,0.000000
13.703125,7.954466,36.000000,35.000000,-45.000000,0.262641,34.250000,0.000000
13.718750,7.292950,31.000000,36.000000,-52.000000,0.262641,34.250000,0.000000
13.734375,6.259031,31.000000,36.000000,-52.000000,0.262641,34.250000,0.000000
13.750000,5.454885,35.000000,34.000000,-51.000000,0.260079,34.250000,0.000000
13.765625,5.352278,35.000000,34.000000,-51.000000,0.260079,34.250000,0.000000
13.781250,6.044886,43.000000,29.000000,-40.000000,0.260079,34.250000,0.000000
13.796875,7.165924,43.000000,29.000000,-40.000000,0.260079,34.250000,0.000000
13.812500,8.146904,47.000000,26.000000,-37.000000,0.260079,34.250000,0.000000
13.828125,8.435734,47.000000,26.000000,-37.000000,0.260079,34.250000,0.000000
13.843750,7.847654,50.000000,27.000000,-36.000000,0.260079,34.250000,0.000000
13.859375,6.559416,50.000000,27.000000,-36.000000,0.260079,34.250000,0.000000
13.875000,4.981256,52.000000,28.000000,-30.000000,0.260079,34.250000,0.000000
13.890625,3.521803,52.000000,28.000000,-30.000000,0.260079,34.250000,0.000000
13.906250,2.477470,53.000000,28.000000,-30.000000,0.260079,34.250000,0.000000
13.921875,1.863503,53.000000,28.000000,-30.000000,0.260079,34.250000,0.000000
13.937500,1.542259,49.000000,29.000000,-34.000000,0.260079,34.250000,0.000000
13.953125,1.317469,49.000000,29.000000,-34.000000,0.260079,34.250000,0.000000
13.968750,1.005787,46.000000,27.000000,-36.000000,0.260079,34.250000,0.000000
13.984375,0.530101,46.000000,27.000000,-36.000000,0.260079,34.250000,0.000000
14.000000,-0.101937,46.000000,27.000000,-38.000000,0.261360,34.250000,0.000000
14.015625,-0.849609,46.000000,27.000000,-38.000000,0.261360,34.250000,0.000000
14.031250,-1.649311,46.000000,26.000000,-39.000000,0.261360,34.250000,0.000000
14.046875,-2.500322,46.000000,26.000000,-39.000000,0.261360,34.250000,0.000000
14.062500,-3.464014,46.000000,24.000000,-39.000000,0.261360,34.250000,0.000000
14.078125,-4.708128,46.000000,24.000000,-39.000000,0.261360,34.250000,0.000000
14.093750,-6.308782,47.000000,24.000000,-38.000000,0.261360,34.250000,0.000000
14.109375,-8.249503,47.000000,24.000000,-38.000000,0.261360,34.250000,0.000000
14.125000,-10.291434,47.000000,24.000000,-37.000000,0.261360,34.250000,0.000000
14.140625,-12.108702,47.000000,24.000000,-37.000000,0.261360,34.250000,0.000000
14.156250,-13.415223,46.000000,25.000000,-35.000000,0.261360,34.250000,0.000000
14.171875,-14.100656,46.000000,25.000000,-35.000000,0.261360,34.250000,0.000000
14.187500,-14.384081,45.000000,25.000000,-35.000000,0.261360,34.250000,0.000000
14.203125,-14.697683,45.000000,25.000000,-35.000000,0.261360,34.250000,0.000000
14.218750,-15.549175,46.000000,25.000000,-35.000000,0.261360,34.250000,0.000000
14.234375,-17.180159,46.000000,25.000000,-35.000000,0.261360,34.250000,0.000000
14.250000,-19.414078,47.000000,25.000000,-35.000000,0.260079,34.250000,0.000000
14.265625,-21.743584,47.000000,25.000000,-35.000000,0.260079,34.250000,0.000000
14.281250,-23.422722,48.000000,25.000000,-35.000000,0.260079,34.250000,0.000000
14.296875,-23.872719,48.000000,25.000000,-35.000000,0.260079,34.250000,0.000000
14.312500,-22.870710,48.000000,25.000000,-35.000000,0.260079,34.250000,0.000000
14.328125,-20.597473,48.000000,25.000000,-35.000000,0.260079,34.250000,0.000000
14.343750,-17.485981,47.000000,25.000000,-35.000000,0.260079,34.250000,0.000000
14.359375,-13.999317,47.000000,25.000000,-35.000000,0.260079,34.250000,0.000000
14.375000,-10.407482,48.000000,25.000000,-35.000000,0.260079,34.250000,0.000000
14.390625,-6.957806,48.000000,25.000000,-35.000000,0.260079,34.250000,0.000000
14.406250,-3.794797,48.000000,26.000000,-35.000000,0.260079,34.250000,0.000000
14.421875,-1.130370,48.000000,26.000000,-35.000000,0.260079,34.250000,0.000000
14.437500,0.793610,48.000000,26.000000,-34.000000,0.260079,34.250000,0.000000
14.453125,1.804998,48.000000,26.000000,-34.000000,0.260079,34.250000,0.000000
14.468750,1.958282,48.000000,26.000000,-35.000000,0.260079,34.250000,0.000000
14.484375,1.467612,48.000000,26.000000,-35.000000,0.260079,34.250000,0.000000
14.500000,0.617864,48.000000,26.000000,-34.000000,0.258798,34.250000,0.000000
14.515625,-0.384271,48.000000,26.000000,-34.000000,0.258798,34.250000,0.000000
14.531250,-1.556429,47.000000,26.000000,-34.000000,0.258798,34.250000,0.000000
14.546875,-3.061134,47.000000,26.000000,-34.000000,0.258798,34.250000,0.000000
14.562500,-5.061743,46.000000,26.000000,-35.000000,0.258798,34.250000,0.000000
14.578125,-7.683924,46.000000,26.000000,-35.000000,0.258798,34.250000,0.000000
14.593750,-10.881453,45.000000,25.000000,-36.000000,0.258798,34.250000,0.000000
14.609375,-14.550693,45.000000,25.000000,-36.000000,0.258798,34.250000,0.000000
14.625000,-18.649948,46.000000,26.000000,-35.000000,0.258798,34.250000,0.000000
14.640625,-23.293945,46.000000,26.000000,-35.000000,0.258798,34.250000,0.000000
14.656250,-28.827091,54.000000,27.000000,-31.000000,0.258798,34.250000,0.000000
14.671875,-35.731186,54.000000,27.000000,-31.000000,0.258798,34.250000,0.000000
14.687500,-44.449850,54.000000,27.000000,-31.000000,0.258798,34.250000,0.000000
14.703125,-54.987755,54.000000,27.000000,-31.000000,0.258798,34.250000,0.000000
14.718750,-66.769340,41.000000,30.000000,-36.000000,0.258798,34.250000,0.000000
14.734375,-78.456375,41.000000,30.000000,-36.000000,0.258798,34.250000,0.000000
14.750000,-88.240456,39.000000,31.000000,-37.000000,0.260079,34.250000,0.000000
14.765625,-94.477660,39.000000,31.000000,-37.000000,0.260079,34.250000,0.000000
14.781250,-96.128365,48.000000,33.000000,-31.000000,0.260079,34.250000,0.000000
14.796875,-93.010590,48.000000,33.000000,-31.000000,0.260079,34.250000,0.000000
14.812500,-85.608536,60.000000,33.000000,-20.000000,0.260079,34.250000,0.000000
14.828125,-74.770450,60.000000,33.000000,-20.000000,0.260079,34.250000,0.000000
14.843750,-61.439080,59.000000,32.000000,-18.000000,0.260079,34.250000,0.000000
14.859375,-46.820618,59.000000,32.000000,-18.000000,0.260079,34.250000,0.000000
14.875000,-32.554153,61.000000,28.000000,-16.000000,0.260079,34.250000,0.000000
14.890625,-20.751510,61.000000,28.000000,-16.000000,0.260079,34.250000,0.000000
14.906250,-13.490936,64.000000,26.000000,-13.000000,0.260079,34.250000,0.000000
14.921875,-12.019684,64.000000,26.000000,-13.000000,0.260079,34.250000,0.000000
14.937500,-16.047302,81.000000,25.000000,-14.000000,0.260079,34.250000,0.000000
14.953125,-23.632889,81.000000,25.000000,-14.000000,0.260079,34.250000,0.000000
14.968750,-31.683884,91.000000,28.000000,-18.000000,0.260079,34.250000,0.000000
14.984375,-36.966780,91.000000,28.000000,-18.000000,0.260079,34.250000,0.000000
15.000000,-37.082962,94.000000,39.000000,-20.000000,0.258798,34.230000,0.000000
15.015625,-31.051010,94.000000,39.000000,-20.000000,0.258798,34.230000,0.000000
15.031250,-19.266160,93.000000,47.000000,-6.000000,0.258798,34.230000,0.000000
15.046875,-3.175263,93.000000,47.000000,-6.000000,0.258798,34.230000,0.000000
15.062500,15.251816,84.000000,45.000000,-2.000000,0.258798,34.230000,0.000000
15.078125,33.926270,84.000000,45.000000,-2.000000,0.258798,34.230000,0.000000
15.093750,50.981950,62.000000,35.000000,5.000000,0.258798,34.230000,0.000000
15.109375,64.963990,62.000000,35.000000,5.000000,0.258798,34.230000,0.000000
15.125000,75.065570,50.000000,32.000000,9.000000,0.258798,34.230000,0.000000
15.140625,81.061935,50.000000,32.000000,9.000000,0.258798,34.230000,0.000000
15.156250,83.253740,25.000000,31.000000,13.000000,0.258798,34.230000,0.000000
15.171875,82.256240,25.000000,31.000000,13.000000,0.258798,34.230000,0.000000
15.187500,78.881165,13.000000,30.000000,14.000000,0.258798,34.230000,0.000000
15.203125,73.940920,13.000000,30.000000,14.000000,0.258798,34.230000,0.000000
15.218750,68.258500,2.000000,29.000000,20.000000,0.258798,34.230000,0.000000
15.234375,62.497543,2.000000,29.000000,20.000000,0.258798,34.230000,0.000000
15.250000,57.107697,-12.000000,30.000000,23.000000,0.257517,34.230000,0.000000
15.265625,52.257890,-12.000000,30.000000,23.000000,0.257517,34.230000,0.000000
15.281250,47.869736,-13.000000,34.000000,32.000000,0.257517,34.230000,0.000000
15.296875,43.838380,-13.000000,34.000000,32.000000,0.257517,34.230000,0.000000
15.312500,40.187195,-6.000000,40.000000,26.000000,0.257517,34.230000,0.000000
15.328125,37.067078,-6.000000,40.000000,26.000000,0.257517,34.230000,0.000000
15.343750,34.653275,-3.000000,44.000000,22.000000,0.257517,34.230000,0.000000
15.359375,33.004090,-3.000000,44.000000,22.000000,0.257517,34.230000,0.000000
15.375000,31.904694,5.000000,47.000000,20.000000,0.257517,34.230000,0.000000
15.390625,30.937530,5.000000,47.000000,20.000000,0.257517,34.230000,0.000000
15.406250,29.690094,7.000000,47.000000,19.000000,0.257517,34.230000,0.000000
15.421875,27.912079,7.000000,47.000000,19.000000,0.257517,34.230000,0.000000
15.437500,25.665985,6.000000,50.000000,22.000000,0.257517,34.230000,0.000000
15.453125,23.226532,6.000000,50.000000,22.000000,0.257517,34.230000,0.000000
15.468750,20.855103,6.000000,51.000000,24.000000,0.257517,34.230000,0.000000
15.484375,18.638641,6.000000,51.000000,24.000000,0.257517,34.230000,0.000000
15.500000,16.414886,5.000000,56.000000,23.000000,0.257517,34.230000,0.000000
15.515625,13.818481,5.000000,56.000000,23.000000,0.257517,34.230000,0.000000
15.531250,10.569397,7.000000,56.000000,27.000000,0.257517,34.230000,0.000000
15.546875,6.562225,7.000000,56.000000,27.000000,0.257517,34.230000,0.000000
15.562500,1.879578,5.000000,55.000000,29.000000,0.257517,34.230000,0.000000
15.578125,-3.290894,5.000000,55.000000,29.000000,0.257517,34.230000,0.000000
15.593750,-8.783203,5.000000,52.000000,31.000000,0.257517,34.230000,0.000000
15.609375,-14.486328,5.000000,52.000000,31.000000,0.257517,34.230000,0.000000
15.625000,-20.229034,4.000000,46.000000,30.000000,0.257517,34.230000,0.000000
15.640625,-25.772858,4.000000,46.000000,30.000000,0.257517,34.230000,0.000000
15.656250,-30.901855,-3.000000,38.000000,29.000000,0.257517,34.230000,0.000000
15.671875,-35.570374,-3.000000,38.000000,29.000000,0.257517,34.230000,0.000000
15.687500,-40.046753,2.000000,42.000000,30.000000,0.257517,34.230000,0.000000
15.703125,-44.859497,2.000000,42.000000,30.000000,0.257517,34.230000,0.000000
15.718750,-50.521545,5.000000,40.000000,32.000000,0.257517,34.230000,0.000000
15.734375,-57.163970,5.000000,40.000000,32.000000,0.257517,34.230000,0.000000
15.750000,-64.287200,4.000000,36.000000,38.000000,0.256235,34.230000,0.000000
15.765625,-70.812410,4.000000,36.000000,38.000000,0.256235,34.230000,0.000000
15.781250,-75.402340,7.000000,36.000000,38.000000,0.256235,34.230000,0.000000
15.796875,-76.848080,7.000000,36.000000,38.000000,0.256235,34.230000,0.000000
15.812500,-74.406680,14.000000,42.000000,37.000000,0.256235,34.230000,0.000000
15.828125,-67.876650,14.000000,42.000000,37.000000,0.256235,34.230000,0.000000
15.843750,-57.638123,17.000000,41.000000,36.000000,0.256235,34.230000,0.000000
15.859375,-44.490845,17.000000,41.000000,36.000000,0.256235,34.230000,0.000000
15.875000,-29.695526,26.000000,37.000000,36.000000,0.256235,34.230000,0.000000
15.890625,-14.798035,26.000000,37.000000,36.000000,0.256235,34.230000,0.000000
15.906250,-1.320801,44.000000,36.000000,39.000000,0.256235,34.230000,0.000000
15.921875,9.593628,44.000000,36.000000,39.000000,0.256235,34.230000,0.000000
15.937500,17.498962,65.000000,35.000000,49.000000,0.256235,34.230000,0.000000
15.953125,22.702637,65.000000,35.000000,49.000000,0.256235,34.230000,0.000000
15.968750,25.956879,67.000000,36.000000,54.000000,0.256235,34.230000,0.000000
15.984375,28.035889,67.000000,36.000000,54.000000,0.256235,34.230000,0.000000
16.000000,29.377960,58.000000,36.000000,52.000000,0.253673,34.210000,0.000000
16.015625,30.022736,58.000000,36.000000,52.000000,0.253673,34.210000,0.000000
16.031250,29.823517,42.000000,34.000000,51.000000,0.253673,34.210000,0.000000
16.046875,28.752625,42.000000,34.000000,51.000000,0.253673,34.210000,0.000000
16.062500,27.078583,30.000000,33.000000,49.000000,0.253673,34.210000,0.000000
16.078125,25.340973,30.000000,33.000000,49.000000,0.253673,34.210000,0.000000
16.093750,24.143310,25.000000,27.000000,51.000000,0.253673,34.210000,0.000000
16.109375,23.912384,25.000000,27.000000,51.000000,0.253673,34.210000,0.000000
16.125000,24.803925,29.000000,24.000000,56.000000,0.253673,34.210000,0.000000
16.140625,26.750244,29.000000,24.000000,56.000000,0.253673,34.210000,0.000000
16.156250,29.579163,28.000000,23.000000,60.000000,0.253673,34.210000,0.000000
16.171875,33.140440,28.000000,23.000000,60.000000,0.253673,34.210000,0.000000
16.187500,37.277527,24.000000,22.000000,59.000000,0.253673,34.210000,0.000000
16.203125,41.839570,24.000000,22.000000,59.000000,0.253673,34.210000,0.000000
16.218750,46.558044,15.000000,19.000000,53.000000,0.253673,34.210000,0.000000
16.234375,51.113007,15.000000,19.000000,53.000000,0.253673,34.210000,0.000000
16.250000,55.210083,21.000000,20.000000,63.000000,0.269047,34.210000,0.000000
16.265625,58.695130,21.000000,20.000000,63.000000,0.269047,34.210000,0.000000
16.281250,61.559784,16.000000,20.000000,63.000000,0.269047,34.210000,0.000000
16.296875,63.841950,16.000000,20.000000,63.000000,0.269047,34.210000,0.000000
16.312500,65.482086,19.000000,23.000000,60.000000,0.269047,34.210000,0.000000
16.328125,66.233700,19.000000,23.000000,60.000000,0.269047,34.210000,0.000000
16.343750,65.696900,17.000000,21.000000,57.000000,0.269047,34.210000,0.000000
16.359375,63.602020,17.000000,21.000000,57.000000,0.269047,34.210000,0.000000
16.375000,59.996338,21.000000,17.000000,54.000000,0.269047,34.210000,0.000000
16.390625,55.440796,21.000000,17.000000,54.000000,0.269047,34.210000,0.000000
16.406250,50.874542,25.000000,15.000000,56.000000,0.269047,34.210000,0.000000
16.421875,47.256836,25.000000,15.000000,56.000000,0.269047,34.210000,0.000000
16.437500,45.136230,31.000000,18.000000,58.000000,0.269047,34.210000,0.000000
16.453125,44.316833,31.000000,18.000000,58.000000,0.269047,34.210000,0.000000
16.468750,43.877472,32.000000,19.000000,58.000000,0.269047,34.210000,0.000000
16.484375,42.596010,32.000000,19.000000,58.000000,0.269047,34.210000,0.000000
16.500000,39.460297,30.000000,17.000000,57.000000,0.260079,34.210000,0.000000
16.515625,34.114807,30.000000,17.000000,57.000000,0.260079,34.210000,0.000000
16.531250,27.064575,29.000000,16.000000,55.000000,0.260079,34.210000,0.000000
16.546875,19.552430,29.000000,16.000000,55.000000,0.260079,34.210000,0.000000
16.562500,13.146698,28.000000,17.000000,55.000000,0.260079,34.210000,0.000000
16.578125,9.262909,28.000000,17.000000,55.000000,0.260079,34.210000,0.000000
16.593750,8.780945,27.000000,17.000000,56.000000,0.260079,34.210000,0.000000
16.609375,11.686462,27.000000,17.000000,56.000000,0.260079,34.210000,0.000000
16.625000,17.003693,27.000000,17.000000,57.000000,0.260079,34.210000,0.000000
16.640625,23.000183,27.000000,17.000000,57.000000,0.260079,34.210000,0.000000
16.656250,27.556488,27.000000,16.000000,57.000000,0.260079,34.210000,0.000000
16.671875,28.791016,27.000000,16.000000,57.000000,0.260079,34.210000,0.000000
16.687500,25.667755,27.000000,16.000000,56.000000,0.260079,34.210000,0.000000
16.703125,18.414032,27.000000,16.000000,56.000000,0.260079,34.210000,0.000000
16.718750,8.581818,28.000000,16.000000,55.000000,0.260079,34.210000,0.000000
16.734375,-1.471466,28.000000,16.000000,55.000000,0.260079,34.210000,0.000000
16.750000,-9.342468,29.000000,16.000000,56.000000,0.260079,34.210000,0.000000
16.765625,-13.449738,29.000000,16.000000,56.000000,0.260079,34.210000,0.000000
16.781250,-13.521057,28.000000,16.000000,55.000000,0.260079,34.210000,0.000000
16.796875,-10.559357,28.000000,16.000000,55.000000,0.260079,34.210000,0.000000
16.812500,-6.295715,28.000000,16.000000,55.000000,0.260079,34.210000,0.000000
16.828125,-2.393555,28.000000,16.000000,55.000000,0.260079,34.210000,0.000000
16.843750,0.268890,28.000000,16.000000,54.000000,0.260079,34.210000,0.000000
16.859375,1.889160,28.000000,16.000000,54.000000,0.260079,34.210000,0.000000
16.875000,3.518280,27.000000,16.000000,54.000000,0.260079,34.210000,0.000000
16.890625,6.497833,27.000000,16.000000,54.000000,0.260079,34.210000,0.000000
16.906250,11.713684,27.000000,16.000000,54.000000,0.260079,34.210000,0.000000
16.921875,19.078491,27.000000,16.000000,54.000000,0.260079,34.210000,0.000000
16.937500,27.380920,27.000000,16.000000,55.000000,0.260079,34.210000,0.000000
16.953125,34.552338,27.000000,16.000000,55.000000,0.260079,34.210000,0.000000
16.968750,38.191467,28.000000,16.000000,55.000000,0.260079,34.210000,0.000000
16.984375,36.233490,28.000000,16.000000,55.000000,0.260079,34.210000,0.000000
17.000000,27.603546,27.000000,16.000000,55.000000,0.261360,34.150000,0.000000
17.015625,12.618866,27.000000,16.000000,55.000000,0.261360,34.150000,0.000000
17.031250,-7.033844,27.000000,16.000000,55.000000,0.261360,34.150000,0.000000
17.046875,-28.737030,27.000000,16.000000,55.000000,0.261360,34.150000,0.000000
17.062500,-49.773865,27.000000,16.000000,54.000000,0.261360,34.150000,0.000000
17.078125,-68.205380,27.000000,16.000000,54.000000,0.261360,34.150000,0.000000
17.093750,-83.302734,27.000000,16.000000,55.000000,0.261360,34.150000,0.000000
17.109375,-95.480225,27.000000,16.000000,55.000000,0.261360,34.150000,0.000000
17.125000,-105.626920,27.000000,17.000000,55.000000,0.261360,34.150000,0.000000
17.140625,-114.263760,27.000000,17.000000,55.000000,0.261360,34.150000,0.000000
17.156250,-121.037200,28.000000,16.000000,55.000000,0.261360,34.150000,0.000000
17.171875,-124.776580,28.000000,16.000000,55.000000,0.261360,34.150000,0.000000
17.187500,-124.110596,28.000000,16.000000,55.000000,0.261360,34.150000,0.000000
17.203125,-118.273285,28.000000,16.000000,55.000000,0.261360,34.150000,0.000000
17.218750,-107.569916,27.000000,16.000000,55.000000,0.261360,34.150000,0.000000
17.234375,-93.328890,27.000000,16.000000,55.000000,0.261360,34.150000,0.000000
17.250000,-77.336090,27.000000,16.000000,55.000000,0.261360,34.150000,0.000000
17.265625,-61.092163,27.000000,16.000000,55.000000,0.261360,34.150000,0.000000
17.281250,-45.415344,27.000000,16.000000,55.000000,0.261360,34.150000,0.000000
17.296875,-30.359741,27.000000,16.000000,55.000000,0.261360,34.150000,0.000000
17.312500,-15.677216,28.000000,17.000000,55.000000,0.261360,34.150000,0.000000
17.328125,-1.104431,28.000000,17.000000,55.000000,0.261360,34.150000,0.000000
17.343750,13.409332,27.000000,16.000000,55.000000,0.261360,34.150000,0.000000
17.359375,27.738708,27.000000,16.000000,55.000000,0.261360,34.150000,0.000000
17.375000,41.815002,27.000000,16.000000,55.000000,0.261360,34.150000,0.000000
17.390625,55.657745,27.000000,16.000000,55.000000,0.261360,34.150000,0.000000
17.406250,69.254240,27.000000,16.000000,55.000000,0.261360,34.150000,0.000000
17.421875,82.335510,27.000000,16.000000,55.000000,0.261360,34.150000,0.000000
17.437500,94.220184,28.000000,16.000000,55.000000,0.261360,34.150000,0.000000
17.453125,103.792145,28.000000,16.000000,55.000000,0.261360,34.150000,0.000000
17.468750,109.909546,27.000000,16.000000,55.000000,0.261360,34.150000,0.000000
17.484375,111.742740,27.000000,16.000000,55.000000,0.261360,34.150000,0.000000
17.500000,109.177246,27.000000,16.000000,55.000000,0.260079,34.150000,0.000000
17.515625,102.874790,27.000000,16.000000,55.000000,0.260079,34.150000,0.000000
17.531250,94.071350,27.000000,16.000000,55.000000,0.260079,34.150000,0.000000
17.546875,84.250824,27.000000,16.000000,55.000000,0.260079,34.150000,0.000000
17.562500,74.700195,27.000000,17.000000,55.000000,0.260079,34.150000,0.000000
17.578125,66.293120,27.000000,17.000000,55.000000,0.260079,34.150000,0.000000
17.593750,59.344177,28.000000,16.000000,56.000000,0.260079,34.150000,0.000000
17.609375,53.602690,28.000000,16.000000,56.000000,0.260079,34.150000,0.000000
17.625000,48.354280,28.000000,16.000000,55.000000,0.260079,34.150000,0.000000
17.640625,42.623047,28.000000,16.000000,55.000000,0.260079,34.150000,0.000000
17.656250,35.511597,27.000000,16.000000,54.000000,0.260079,34.150000,0.000000
17.671875,26.473480,27.000000,16.000000,54.000000,0.260079,34.150000,0.000000
17.687500,15.631073,27.000000,16.000000,55.000000,0.260079,34.150000,0.000000
17.703125,3.737518,27.000000,16.000000,55.000000,0.260079,34.150000,0.000000
17.718750,-7.935333,27.000000,16.000000,55.000000,0.260079,34.150000,0.000000
17.734375,-17.983276,27.000000,16.000000,55.000000,0.260079,34.150000,0.000000
17.750000,-25.211578,28.000000,16.000000,55.000000,0.260079,34.150000,0.000000
17.765625,-28.951050,28.000000,16.000000,55.000000,0.260079,34.150000,0.000000
17.781250,-29.225769,27.000000,16.000000,55.000000,0.260079,34.150000,0.000000
17.796875,-26.644379,27.000000,16.000000,55.000000,0.260079,34.150000,0.000000
17.812500,-22.252625,27.000000,16.000000,54.000000,0.260079,34.150000,0.000000
17.828125,-17.156738,27.000000,16.000000,54.000000,0.260079,34.150000,0.000000
17.843750,-12.364441,27.000000,16.000000,55.000000,0.260079,34.150000,0.000000
17.859375,-8.551147,27.000000,16.000000,55.000000,0.260079,34.150000,0.000000
17.875000,-6.026703,27.000000,16.000000,56.000000,0.260079,34.150000,0.000000
17.890625,-4.722168,27.000000,16.000000,56.000000,0.260079,34.150000,0.000000
17.906250,-4.376190,28.000000,16.000000,56.000000,0.260079,34.150000,0.000000
17.921875,-4.567627,28.000000,16.000000,56.000000,0.260079,34.150000,0.000000
17.937500,-4.834015,27.000000,17.000000,54.000000,0.260079,34.150000,0.000000
17.953125,-4.787140,27.000000,17.000000,54.000000,0.260079,34.150000,0.000000
17.968750,-4.179688,27.000000,17.000000,55.000000,0.260079,34.150000,0.000000
17.984375,-2.973083,27.000000,17.000000,55.000000,0.260079,34.150000,0.000000
18.000000,-1.366150,27.000000,16.000000,55.000000,0.260079,34.210000,0.000000
18.015625,0.292603,27.000000,16.000000,55.000000,0.260079,34.210000,0.000000
18.031250,1.598724,28.000000,16.000000,56.000000,0.260079,34.210000,0.000000
18.046875,2.259491,28.000000,16.000000,56.000000,0.260079,34.210000,0.000000
18.062500,2.172424,28.000000,16.000000,55.000000,0.260079,34.210000,0.000000
18.078125,1.503906,28.000000,16.000000,55.000000,0.260079,34.210000,0.000000
18.093750,0.596985,27.000000,17.000000,54.000000,0.260079,34.210000,0.000000
18.109375,-0.163330,27.000000,17.000000,54.000000,0.260079,34.210000,0.000000
18.125000,-0.483246,27.000000,17.000000,54.000000,0.260079,34.210000,0.000000
18.140625,-0.244720,27.000000,17.000000,54.000000,0.260079,34.210000,0.000000
18.156250,0.482605,28.000000,16.000000,55.000000,0.260079,34.210000,0.000000
18.171875,1.457214,28.000000,16.000000,55.000000,0.260079,34.210000,0.000000
18.187500,2.310455,27.000000,16.000000,55.000000,0.260079,34.210000,0.000000
18.203125,2.724029,27.000000,16.000000,55.000000,0.260079,34.210000,0.000000
18.218750,2.438660,27.000000,16.000000,55.000000,0.260079,34.210000,0.000000
18.234375,1.409882,27.000000,16.000000,55.000000,0.260079,34.210000,0.000000
18.250000,-0.177216,27.000000,17.000000,54.000000,0.260079,34.210000,0.000000
18.265625,-1.931610,27.000000,17.000000,54.000000,0.260079,34.210000,0.000000
18.281250,-3.460358,27.000000,17.000000,54.000000,0.260079,34.210000,0.000000
18.296875,-4.455109,27.000000,17.000000,54.000000,0.260079,34.210000,0.000000
18.312500,-4.853973,28.000000,16.000000,55.000000,0.260079,34.210000,0.000000
18.328125,-4.742279,28.000000,16.000000,55.000000,0.260079,34.210000,0.000000
18.343750,-4.315796,28.000000,17.000000,55.000000,0.260079,34.210000,0.000000
18.359375,-3.820068,28.000000,17.000000,55.000000,0.260079,34.210000,0.000000
18.375000,-3.457825,28.000000,17.000000,54.000000,0.260079,34.210000,0.000000
18.390625,-3.365479,28.000000,17.000000,54.000000,0.260079,34.210000,0.000000
18.406250,-3.596619,28.000000,17.000000,54.000000,0.260079,34.210000,0.000000
18.421875,-4.079376,28.000000,17.000000,54.000000,0.260079,34.210000,0.000000
18.437500,-4.595490,28.000000,17.000000,55.000000,0.260079,34.210000,0.000000
18.453125,-4.888031,28.000000,17.000000,55.000000,0.260079,34.210000,0.000000
18.468750,-4.739593,28.000000,17.000000,55.000000,0.260079,34.210000,0.000000
18.484375,-4.100617,28.000000,17.000000,55.000000,0.260079,34.210000,0.000000
18.500000,-3.184906,27.000000,17.000000,55.000000,0.260079,34.210000,0.000000
18.515625,-2.384766,27.000000,17.000000,55.000000,0.260079,34.210000,0.000000
18.531250,-2.072174,28.000000,17.000000,55.000000,0.260079,34.210000,0.000000
18.546875,-2.359497,28.000000,17.000000,55.000000,0.260079,34.210000,0.000000
18.562500,-3.008606,28.000000,17.000000,54.000000,0.260079,34.210000,0.000000
18.578125,-3.539490,28.000000,17.000000,54.000000,0.260079,34.210000,0.000000
18.593750,-3.499908,28.000000,17.000000,54.000000,0.260079,34.210000,0.000000
18.609375,-2.724792,28.000000,17.000000,54.000000,0.260079,34.210000,0.000000
18.625000,-1.429016,28.000000,17.000000,54.000000,0.260079,34.210000,0.000000
18.640625,-0.070038,28.000000,17.000000,54.000000,0.260079,34.210000,0.000000
18.656250,0.929352,28.000000,17.000000,55.000000,0.260079,34.210000,0.000000
18.671875,1.423340,28.000000,17.000000,55.000000,0.260079,34.210000,0.000000
18.687500,1.501678,28.000000,16.000000,55.000000,0.260079,34.210000,0.000000
18.703125,1.452087,28.000000,16.000000,55.000000,0.260079,34.210000,0.000000
18.718750,1.544708,28.000000,17.000000,55.000000,0.260079,34.210000,0.000000
18.734375,1.831940,28.000000,17.000000,55.000000,0.260079,34.210000,0.000000
18.750000,2.260681,28.000000,17.000000,55.000000,0.260079,34.210000,0.000000
18.765625,2.663574,28.000000,17.000000,55.000000,0.260079,34.210000,0.000000
18.781250,2.849243,28.000000,17.000000,55.000000,0.260079,34.210000,0.000000
18.796875,2.720306,28.000000,17.000000,55.000000,0.260079,34.210000,0.000000
18.812500,2.229217,27.000000,17.000000,54.000000,0.260079,34.210000,0.000000
18.828125,1.431335,27.000000,17.000000,54.000000,0.260079,34.210000,0.000000
18.843750,0.504272,28.000000,17.000000,54.000000,0.260079,34.210000,0.000000
18.859375,-0.337738,28.000000,17.000000,54.000000,0.260079,34.210000,0.000000
18.875000,-0.865723,28.000000,17.000000,54.000000,0.260079,34.210000,0.000000
18.890625,-0.970886,28.000000,17.000000,54.000000,0.260079,34.210000,0.000000
18.906250,-0.749817,28.000000,16.000000,54.000000,0.260079,34.210000,0.000000
18.921875,-0.471283,28.000000,16.000000,54.000000,0.260079,34.210000,0.000000
18.937500,-0.441345,28.000000,17.000000,54.000000,0.260079,34.210000,0.000000
18.953125,-0.867950,28.000000,17.000000,54.000000,0.260079,34.210000,0.000000
18.968750,-1.817474,28.000000,17.000000,54.000000,0.260079,34.210000,0.000000
18.984375,-3.184326,28.000000,17.000000,54.000000,0.260079,34.210000,0.000000
19.000000,-4.755096,28.000000,17.000000,54.000000,0.261360,34.210000,0.000000
19.015625,-6.318695,28.000000,17.000000,54.000000,0.261360,34.210000,0.000000
19.031250,-7.677948,28.000000,17.000000,55.000000,0.261360,34.210000,0.000000
19.046875,-8.691132,28.000000,17.000000,55.000000,0.261360,34.210000,0.000000
19.062500,-9.304260,28.000000,17.000000,55.000000,0.261360,34.210000,0.000000
19.078125,-9.567902,28.000000,17.000000,55.000000,0.261360,34.210000,0.000000
19.093750,-9.664276,28.000000,17.000000,55.000000,0.261360,34.210000,0.000000
19.109375,-9.764832,28.000000,17.000000,55.000000,0.261360,34.210000,0.000000
19.125000,-9.965820,28.000000,17.000000,55.000000,0.261360,34.210000,0.000000
19.140625,-10.153671,28.000000,17.000000,55.000000,0.261360,34.210000,0.000000
19.156250,-10.066666,28.000000,17.000000,54.000000,0.261360,34.210000,0.000000
19.171875,-9.421310,28.000000,17.000000,54.000000,0.261360,34.210000,0.000000
19.187500,-8.142258,28.000000,17.000000,54.000000,0.261360,34.210000,0.000000
19.203125,-6.476227,28.000000,17.000000,54.000000,0.261360,34.210000,0.000000
19.218750,-4.821350,28.000000,17.000000,55.000000,0.261360,34.210000,0.000000
19.234375,-3.627548,28.000000,17.000000,55.000000,0.261360,34.210000,0.000000
19.250000,-3.097611,28.000000,17.000000,54.000000,0.260079,34.210000,0.000000
19.265625,-3.092896,28.000000,17.000000,54.000000,0.260079,34.210000,0.000000
19.281250,-3.232147,28.000000,17.000000,54.000000,0.260079,34.210000,0.000000
19.296875,-3.152695,28.000000,17.000000,54.000000,0.260079,34.210000,0.000000
19.312500,-2.689987,28.000000,17.000000,55.000000,0.260079,34.210000,0.000000
19.328125,-1.947861,28.000000,17.000000,55.000000,0.260079,34.210000,0.000000
19.343750,-1.174606,28.000000,17.000000,55.000000,0.260079,34.210000,0.000000
19.359375,-0.558304,28.000000,17.000000,55.000000,0.260079,34.210000,0.000000
19.375000,-0.113754,28.000000,17.000000,54.000000,0.260079,34.210000,0.000000
19.390625,0.290451,28.000000,17.000000,54.000000,0.260079,34.210000,0.000000
19.406250,0.757065,28.000000,17.000000,53.000000,0.260079,34.210000,0.000000
19.421875,1.237747,28.000000,17.000000,53.000000,0.260079,34.210000,0.000000
19.437500,1.494446,28.000000,17.000000,53.000000,0.260079,34.210000,0.000000
19.453125,1.310425,28.000000,17.000000,53.000000,0.260079,34.210000,0.000000
19.468750,0.628571,28.000000,17.000000,54.000000,0.260079,34.210000,0.000000
19.484375,-0.329117,28.000000,17.000000,54.000000,0.260079,34.210000,0.000000
19.500000,-1.138916,28.000000,17.000000,55.000000,0.261360,34.210000,0.000000
19.515625,-1.472229,28.000000,17.000000,55.000000,0.261360,34.210000,0.000000
19.531250,-1.286881,30.000000,17.000000,56.000000,0.261360,34.210000,0.000000
19.546875,-0.839981,30.000000,17.000000,56.000000,0.261360,34.210000,0.000000
19.562500,-0.501007,29.000000,17.000000,56.000000,0.261360,34.210000,0.000000
19.578125,-0.519562,29.000000,17.000000,56.000000,0.261360,34.210000,0.000000
19.593750,-0.863556,28.000000,17.000000,56.000000,0.261360,34.210000,0.000000
19.609375,-1.314484,28.000000,17.000000,56.000000,0.261360,34.210000,0.000000
19.625000,-1.668793,28.000000,17.000000,55.000000,0.261360,34.210000,0.000000
19.640625,-1.881012,28.000000,17.000000,55.000000,0.261360,34.210000,0.000000
19.656250,-2.085327,28.000000,17.000000,55.000000,0.261360,34.210000,0.000000
19.671875,-2.469543,28.000000,17.000000,55.000000,0.261360,34.210000,0.000000
19.687500,-3.072723,28.000000,17.000000,54.000000,0.261360,34.210000,0.000000
19.703125,-3.747025,28.000000,17.000000,54.000000,0.261360,34.210000,0.000000
19.718750,-4.227066,28.000000,17.000000,53.000000,0.261360,34.210000,0.000000
19.734375,-4.251129,28.000000,17.000000,53.000000,0.261360,34.210000,0.000000
19.750000,-3.782761,28.000000,17.000000,53.000000,0.261360,34.210000,0.000000
19.765625,-3.039414,28.000000,17.000000,53.000000,0.261360,34.210000,0.000000
19.781250,-2.340378,29.000000,17.000000,53.000000,0.261360,34.210000,0.000000
19.796875,-1.995010,29.000000,17.000000,53.000000,0.261360,34.210000,0.000000
19.812500,-2.181747,29.000000,17.000000,54.000000,0.261360,34.210000,0.000000
19.828125,-2.864197,29.000000,17.000000,54.000000,0.261360,34.210000,0.000000
19.843750,-3.809097,29.000000,17.000000,55.000000,0.261360,34.210000,0.000000
19.859375,-4.704681,29.000000,17.000000,55.000000,0.261360,34.210000,0.000000
19.875000,-5.183807,28.000000,17.000000,55.000000,0.261360,34.210000,0.000000
19.890625,-5.009308,28.000000,17.000000,55.000000,0.261360,34.210000,0.000000
19.906250,-4.156723,28.000000,17.000000,55.000000,0.261360,34.210000,0.000000
19.921875,-2.878922,28.000000,17.000000,55.000000,0.261360,34.210000,0.000000
19.937500,-1.645599,28.000000,17.000000,55.000000,0.261360,34.210000,0.000000
19.953125,-0.916489,28.000000,17.000000,55.000000,0.261360,34.210000,0.000000
19.968750,-0.973755,28.000000,17.000000,54.000000,0.261360,34.210000,0.000000
19.984375,-1.758835,28.000000,17.000000,54.000000,0.261360,34.210000,0.000000
20.000000,-2.947449,28.000000,17.000000,54.000000,0.261360,34.210000,0.000000
20.015625,-4.104004,28.000000,17.000000,54.000000,0.261360,34.210000,0.000000
20.031250,-4.913376,28.000000,17.000000,53.000000,0.261360,34.210000,0.000000
20.046875,-5.313278,28.000000,17.000000,53.000000,0.261360,34.210000,0.000000
20.062500,-5.389481,28.000000,17.000000,53.000000,0.261360,34.210000,0.000000
20.078125,-5.266800,28.000000,17.000000,53.000000,0.261360,34.210000,0.000000
20.093750,-4.925064,28.000000,17.000000,54.000000,0.261360,34.210000,0.000000
20.109375,-4.260849,28.000000,17.000000,54.000000,0.261360,34.210000,0.000000
20.125000,-3.170242,29.000000,17.000000,54.000000,0.261360,34.210000,0.000000
20.140625,-1.750778,29.000000,17.000000,54.000000,0.261360,34.210000,0.000000
20.156250,-0.288330,28.000000,17.000000,54.000000,0.261360,34.210000,0.000000
20.171875,0.869675,28.000000,17.000000,54.000000,0.261360,34.210000,0.000000
20.187500,1.510872,29.000000,17.000000,55.000000,0.261360,34.210000,0.000000
20.203125,1.700417,29.000000,17.000000,55.000000,0.261360,34.210000,0.000000
20.218750,1.697357,31.000000,17.000000,56.000000,0.261360,34.210000,0.000000
20.234375,1.815697,31.000000,17.000000,56.000000,0.261360,34.210000,0.000000
20.250000,2.211296,31.000000,18.000000,57.000000,0.261360,34.210000,0.000000
20.265625,2.790863,31.000000,18.000000,57.000000,0.261360,34.210000,0.000000
20.281250,3.365509,26.000000,18.000000,55.000000,0.261360,34.210000,0.000000
20.296875,3.753357,26.000000,18.000000,55.000000,0.261360,34.210000,0.000000
20.312500,3.874390,21.000000,17.000000,52.000000,0.261360,34.210000,0.000000
20.328125,3.734413,21.000000,17.000000,52.000000,0.261360,34.210000,0.000000
20.343750,3.421288,24.000000,17.000000,55.000000,0.261360,34.210000,0.000000
20.359375,2.925339,24.000000,17.000000,55.000000,0.261360,34.210000,0.000000
20.375000,2.237946,26.000000,17.000000,57.000000,0.261360,34.210000,0.000000
20.390625,1.375984,26.000000,17.000000,57.000000,0.261360,34.210000,0.000000
20.406250,0.422562,25.000000,16.000000,55.000000,0.261360,34.210000,0.000000
20.421875,-0.426460,25.000000,16.000000,55.000000,0.261360,34.210000,0.000000
20.437500,-1.053047,26.000000,17.000000,55.000000,0.261360,34.210000,0.000000
20.453125,-1.434990,26.000000,17.000000,55.000000,0.261360,34.210000,0.000000
20.468750,-1.688370,27.000000,17.000000,56.000000,0.261360,34.210000,0.000000
20.484375,-1.951042,27.000000,17.000000,56.000000,0.261360,34.210000,0.000000
20.500000,-2.313881,30.000000,17.000000,56.000000,0.261360,34.210000,0.000000
20.515625,-2.734039,30.000000,17.000000,56.000000,0.261360,34.210000,0.000000
20.531250,-3.106750,29.000000,17.000000,55.000000,0.261360,34.210000,0.000000
20.546875,-3.458015,29.000000,17.000000,55.000000,0.261360,34.210000,0.000000
20.562500,-3.905640,28.000000,17.000000,54.000000,0.261360,34.210000,0.000000
20.578125,-4.658417,28.000000,17.000000,54.000000,0.261360,34.210000,0.000000
20.593750,-5.806198,28.000000,17.000000,53.000000,0.261360,34.210000,0.000000
20.609375,-7.228638,28.000000,17.000000,53.000000,0.261360,34.210000,0.000000
20.625000,-8.582832,28.000000,17.000000,52.000000,0.261360,34.210000,0.000000
20.640625,-9.535690,28.000000,17.000000,52.000000,0.261360,34.210000,0.000000
20.656250,-9.870575,28.000000,17.000000,52.000000,0.261360,34.210000,0.000000
20.671875,-9.624985,28.000000,17.000000,52.000000,0.261360,34.210000,0.000000
20.687500,-8.940163,28.000000,16.000000,54.000000,0.261360,34.210000,0.000000
20.703125,-7.882439,28.000000,16.000000,54.000000,0.261360,34.210000,0.000000
20.718750,-6.423264,27.000000,16.000000,53.000000,0.261360,34.210000,0.000000
20.734375,-4.437035,27.000000,16.000000,53.000000,0.261360,34.210000,0.000000
20.750000,-1.966621,25.000000,16.000000,50.000000,0.260079,34.210000,0.000000
20.765625,0.625694,25.000000,16.000000,50.000000,0.260079,34.210000,0.000000
20.781250,2.669067,25.000000,16.000000,48.000000,0.260079,34.210000,0.000000
20.796875,3.569397,25.000000,16.000000,48.000000,0.260079,34.210000,0.000000
20.812500,3.094132,29.000000,17.000000,59.000000,0.260079,34.210000,0.000000
20.828125,1.522224,29.000000,17.000000,59.000000,0.260079,34.210000,0.000000
20.843750,-0.423462,31.000000,15.000000,55.000000,0.260079,34.210000,0.000000
20.859375,-2.040855,31.000000,15.000000,55.000000,0.260079,34.210000,0.000000
20.875000,-2.899864,33.000000,15.000000,55.000000,0.260079,34.210000,0.000000
20.890625,-3.091423,33.000000,15.000000,55.000000,0.260079,34.210000,0.000000
20.906250,-2.943565,35.000000,16.000000,58.000000,0.260079,34.210000,0.000000
20.921875,-2.808258,35.000000,16.000000,58.000000,0.260079,34.210000,0.000000
20.937500,-2.766449,33.000000,15.000000,56.000000,0.260079,34.210000,0.000000
20.953125,-2.675484,33.000000,15.000000,56.000000,0.260079,34.210000,0.000000
20.968750,-2.375549,31.000000,16.000000,55.000000,0.260079,34.210000,0.000000
20.984375,-1.898880,31.000000,16.000000,55.000000,0.260079,34.210000,0.000000
21.000000,-1.501583,30.000000,16.000000,55.000000,0.261360,34.210000,0.000000
21.015625,-1.448631,30.000000,16.000000,55.000000,0.261360,34.210000,0.000000
21.031250,-1.773773,28.000000,15.000000,54.000000,0.261360,34.210000,0.000000
21.046875,-2.160664,28.000000,15.000000,54.000000,0.261360,34.210000,0.000000
21.062500,-2.174061,28.000000,14.000000,53.000000,0.261360,34.210000,0.000000
21.078125,-1.488266,28.000000,14.000000,53.000000,0.261360,34.210000,0.000000
21.093750,-0.244034,29.000000,15.000000,54.000000,0.261360,34.210000,0.000000
21.109375,1.060238,29.000000,15.000000,54.000000,0.261360,34.210000,0.000000
21.125000,1.837154,30.000000,14.000000,54.000000,0.261360,34.210000,0.000000
21.140625,1.722382,30.000000,14.000000,54.000000,0.261360,34.210000,0.000000
21.156250,0.836399,31.000000,15.000000,55.000000,0.261360,34.210000,0.000000
21.171875,-0.342281,31.000000,15.000000,55.000000,0.261360,34.210000,0.000000
21.187500,-1.265667,30.000000,15.000000,54.000000,0.261360,34.210000,0.000000
21.203125,-1.540199,30.000000,15.000000,54.000000,0.261360,34.210000,0.000000
21.218750,-1.115307,30.000000,16.000000,54.000000,0.261360,34.210000,0.000000
21.234375,-0.209702,30.000000,16.000000,54.000000,0.261360,34.210000,0.000000
21.250000,0.829872,30.000000,16.000000,53.000000,0.262641,34.210000,0.000000
21.265625,1.719513,30.000000,16.000000,53.000000,0.262641,34.210000,0.000000
21.281250,2.276295,30.000000,16.000000,54.000000,0.262641,34.210000,0.000000
21.296875,2.459812,30.000000,16.000000,54.000000,0.262641,34.210000,0.000000
21.312500,2.335545,30.000000,15.000000,54.000000,0.262641,34.210000,0.000000
21.328125,1.991596,30.000000,15.000000,54.000000,0.262641,34.210000,0.000000
21.343750,1.527138,30.000000,15.000000,54.000000,0.262641,34.210000,0.000000
21.359375,0.985733,30.000000,15.000000,54.000000,0.262641,34.210000,0.000000
21.375000,0.437366,29.000000,15.000000,53.000000,0.262641,34.210000,0.000000
21.390625,-0.038120,29.000000,15.000000,53.000000,0.262641,34.210000,0.000000
21.406250,-0.302517,28.000000,15.000000,52.000000,0.262641,34.210000,0.000000
21.421875,-0.232489,28.000000,15.000000,52.000000,0.262641,34.210000,0.000000
21.437500,0.204731,28.000000,14.000000,53.000000,0.262641,34.210000,0.000000
21.453125,0.816849,28.000000,14.000000,53.000000,0.262641,34.210000,0.000000
21.468750,1.259275,30.000000,15.000000,56.000000,0.262641,34.210000,0.000000
21.484375,1.159527,30.000000,15.000000,56.000000,0.262641,34.210000,0.000000
21.500000,0.368608,31.000000,15.000000,55.000000,0.266485,34.210000,0.000000
21.515625,-0.905956,31.000000,15.000000,55.000000,0.266485,34.210000,0.000000
21.531250,-2.213816,30.000000,16.000000,54.000000,0.266485,34.210000,0.000000
21.546875,-2.996033,30.000000,16.000000,54.000000,0.266485,34.210000,0.000000
21.562500,-2.977484,31.000000,16.000000,55.000000,0.266485,34.210000,0.000000
21.578125,-2.173170,31.000000,16.000000,55.000000,0.266485,34.210000,0.000000
21.593750,-0.921281,30.000000,15.000000,55.000000,0.266485,34.210000,0.000000
21.609375,0.256811,30.000000,15.000000,55.000000,0.266485,34.210000,0.000000
21.625000,0.908242,30.000000,14.000000,54.000000,0.266485,34.210000,1.000000
21.640625,0.683942,30.000000,14.000000,54.000000,0.266485,34.210000,1.000000
21.656250,-0.508192,31.000000,15.000000,55.000000,0.266485,34.210000,1.000000
21.671875,-2.415444,31.000000,15.000000,55.000000,0.266485,34.210000,1.000000
21.687500,-4.600384,39.000000,17.000000,56.000000,0.266485,34.210000,1.000000
21.703125,-6.516775,39.000000,17.000000,56.000000,0.266485,34.210000,1.000000
21.718750,-7.744217,40.000000,17.000000,56.000000,0.266485,34.210000,1.000000
21.734375,-8.169617,40.000000,17.000000,56.000000,0.266485,34.210000,1.000000
21.750000,-8.029538,35.000000,18.000000,49.000000,0.267766,34.210000,1.000000
21.765625,-7.724341,35.000000,18.000000,49.000000,0.267766,34.210000,1.000000
21.781250,-7.621018,34.000000,16.000000,40.000000,0.267766,34.210000,1.000000
21.796875,-7.770137,34.000000,16.000000,40.000000,0.267766,34.210000,1.000000
21.812500,-7.862743,36.000000,17.000000,39.000000,0.267766,34.210000,1.000000
21.828125,-7.429325,36.000000,17.000000,39.000000,0.267766,34.210000,1.000000
21.843750,-6.120373,40.000000,18.000000,39.000000,0.267766,34.210000,1.000000
21.859375,-3.929160,40.000000,18.000000,39.000000,0.267766,34.210000,1.000000
21.875000,-1.209213,40.000000,18.000000,40.000000,0.267766,34.210000,1.000000
21.890625,1.538540,40.000000,18.000000,40.000000,0.267766,34.210000,1.000000
21.906250,3.928510,35.000000,20.000000,42.000000,0.267766,34.210000,1.000000
21.921875,5.833957,35.000000,20.000000,42.000000,0.267766,34.210000,1.000000
21.937500,7.325802,30.000000,21.000000,43.000000,0.267766,34.210000,1.000000
21.953125,8.566582,30.000000,21.000000,43.000000,0.267766,34.210000,1.000000
21.968750,9.692650,23.000000,20.000000,47.000000,0.267766,34.210000,1.000000
21.984375,10.789082,23.000000,20.000000,47.000000,0.267766,34.210000,1.000000
22.000000,11.865901,25.000000,18.000000,50.000000,0.267766,34.230000,1.000000
22.015625,12.923367,25.000000,18.000000,50.000000,0.267766,34.230000,1.000000
22.031250,13.801689,32.000000,17.000000,54.000000,0.267766,34.230000,1.000000
22.046875,14.235209,32.000000,17.000000,54.000000,0.267766,34.230000,1.000000
22.062500,13.811710,35.000000,13.000000,63.000000,0.267766,34.230000,1.000000
22.078125,12.228687,35.000000,13.000000,63.000000,0.267766,34.230000,1.000000
22.093750,9.449997,36.000000,11.000000,66.000000,0.267766,34.230000,1.000000
22.109375,5.761635,36.000000,11.000000,66.000000,0.267766,34.230000,1.000000
22.125000,1.767265,34.000000,7.000000,62.000000,0.267766,34.230000,1.000000
22.140625,-1.955147,34.000000,7.000000,62.000000,0.267766,34.230000,1.000000
22.156250,-5.040546,34.000000,7.000000,60.000000,0.267766,34.230000,1.000000
22.171875,-7.423693,34.000000,7.000000,60.000000,0.267766,34.230000,1.000000
22.187500,-9.265968,31.000000,12.000000,57.000000,0.267766,34.230000,1.000000
22.203125,-10.771223,31.000000,12.000000,57.000000,0.267766,34.230000,1.000000
22.218750,-12.017801,28.000000,13.000000,54.000000,0.267766,34.230000,1.000000
22.234375,-12.960285,28.000000,13.000000,54.000000,0.267766,34.230000,1.000000
22.250000,-13.506153,28.000000,14.000000,53.000000,0.267766,34.230000,1.000000
22.265625,-13.558840,28.000000,14.000000,53.000000,0.267766,34.230000,1.000000
22.281250,-13.133461,30.000000,14.000000,53.000000,0.267766,34.230000,1.000000
22.296875,-12.278643,30.000000,14.000000,53.000000,0.267766,34.230000,1.000000
22.312500,-11.050564,31.000000,13.000000,53.000000,0.267766,34.230000,1.000000
22.328125,-9.529972,31.000000,13.000000,53.000000,0.267766,34.230000,1.000000
22.343750,-7.840443,32.000000,13.000000,54.000000,0.267766,34.230000,1.000000
22.359375,-6.160404,32.000000,13.000000,54.000000,0.267766,34.230000,1.000000
22.375000,-4.685623,31.000000,12.000000,54.000000,0.267766,34.230000,1.000000
22.390625,-3.592720,31.000000,12.000000,54.000000,0.267766,34.230000,1.000000
22.406250,-2.963570,30.000000,13.000000,54.000000,0.267766,34.230000,1.000000
22.421875,-2.781849,30.000000,13.000000,54.000000,0.267766,34.230000,1.000000
22.437500,-2.980534,31.000000,13.000000,55.000000,0.267766,34.230000,1.000000
22.453125,-3.445320,31.000000,13.000000,55.000000,0.267766,34.230000,1.000000
22.468750,-4.059277,30.000000,13.000000,55.000000,0.267766,34.230000,1.000000
22.484375,-4.702949,30.000000,13.000000,55.000000,0.267766,34.230000,1.000000
22.500000,-5.248074,30.000000,13.000000,54.000000,0.265204,34.230000,1.000000
22.515625,-5.591980,30.000000,13.000000,54.000000,0.265204,34.230000,1.000000
22.531250,-5.717281,30.000000,13.000000,54.000000,0.265204,34.230000,1.000000
22.546875,-5.642372,30.000000,13.000000,54.000000,0.265204,34.230000,1.000000
22.562500,-5.392265,30.000000,13.000000,54.000000,0.265204,34.230000,1.000000
22.578125,-4.888630,30.000000,13.000000,54.000000,0.265204,34.230000,1.000000
22.593750,-3.999886,31.000000,14.000000,55.000000,0.265204,34.230000,1.000000
22.609375,-2.583313,31.000000,14.000000,55.000000,0.265204,34.230000,1.000000
22.625000,-0.590233,30.000000,13.000000,55.000000,0.265204,34.230000,1.000000
22.640625,1.806751,30.000000,13.000000,55.000000,0.265204,34.230000,1.000000
22.656250,4.215084,30.000000,13.000000,54.000000,0.265204,34.230000,1.000000
22.671875,6.183178,30.000000,13.000000,54.000000,0.265204,34.230000,1.000000
22.687500,7.406418,29.000000,13.000000,54.000000,0.265204,34.230000,1.000000
22.703125,7.932678,29.000000,13.000000,54.000000,0.265204,34.230000,1.000000
22.718750,8.236954,30.000000,14.000000,54.000000,0.265204,34.230000,1.000000
22.734375,9.015591,30.000000,14.000000,54.000000,0.265204,34.230000,1.000000
22.750000,10.803463,31.000000,14.000000,55.000000,0.266485,34.230000,1.000000
22.765625,13.648136,31.000000,14.000000,55.000000,0.266485,34.230000,1.000000
22.781250,17.008720,30.000000,13.000000,54.000000,0.266485,34.230000,1.000000
22.796875,19.989407,30.000000,13.000000,54.000000,0.266485,34.230000,1.000000
22.812500,21.781685,30.000000,13.000000,55.000000,0.266485,34.230000,1.000000
22.828125,22.065067,30.000000,13.000000,55.000000,0.266485,34.230000,1.000000
22.843750,21.104633,29.000000,14.000000,54.000000,0.266485,34.230000,1.000000
22.859375,19.474102,29.000000,14.000000,54.000000,0.266485,34.230000,1.000000
22.875000,17.735420,29.000000,14.000000,53.000000,0.266485,34.230000,1.000000
22.890625,16.172226,29.000000,14.000000,53.000000,0.266485,34.230000,1.000000
22.906250,14.811348,30.000000,14.000000,54.000000,0.266485,34.230000,1.000000
22.921875,13.581306,30.000000,14.000000,54.000000,0.266485,34.230000,1.000000
22.937500,12.440575,31.000000,14.000000,55.000000,0.266485,34.230000,1.000000
22.953125,11.325554,31.000000,14.000000,55.000000,0.266485,34.230000,1.000000
22.968750,9.977035,30.000000,13.000000,55.000000,0.266485,34.230000,1.000000
22.984375,7.811386,30.000000,13.000000,55.000000,0.266485,34.230000,1.000000
23.000000,4.116951,29.000000,14.000000,54.000000,0.266485,34.230000,1.000000
23.015625,-1.614822,29.000000,14.000000,54.000000,0.266485,34.230000,1.000000
23.031250,-9.269485,29.000000,14.000000,54.000000,0.266485,34.230000,1.000000
23.046875,-18.041237,29.000000,14.000000,54.000000,0.266485,34.230000,1.000000
23.062500,-26.666199,30.000000,14.000000,54.000000,0.266485,34.230000,1.000000
23.078125,-33.890587,30.000000,14.000000,54.000000,0.266485,34.230000,1.000000
23.093750,-38.875633,30.000000,14.000000,54.000000,0.266485,34.230000,1.000000
23.109375,-41.351470,30.000000,14.000000,54.000000,0.266485,34.230000,1.000000
23.125000,-41.471650,30.000000,14.000000,54.000000,0.266485,34.230000,1.000000
23.140625,-39.579765,30.000000,14.000000,54.000000,0.266485,34.230000,1.000000
23.156250,-36.021538,30.000000,14.000000,54.000000,0.266485,34.230000,1.000000
23.171875,-31.101868,30.000000,14.000000,54.000000,0.266485,34.230000,1.000000
23.187500,-25.067696,30.000000,14.000000,54.000000,0.266485,34.230000,1.000000
23.203125,-18.157562,30.000000,14.000000,54.000000,0.266485,34.230000,1.000000
23.218750,-10.486084,30.000000,14.000000,54.000000,0.266485,34.230000,1.000000
23.234375,-2.058792,30.000000,14.000000,54.000000,0.266485,34.230000,1.000000
23.250000,7.180420,30.000000,14.000000,55.000000,0.269047,34.230000,1.000000
23.265625,17.088043,30.000000,14.000000,55.000000,0.269047,34.230000,1.000000
23.281250,27.184044,30.000000,14.000000,55.000000,0.269047,34.230000,1.000000
23.296875,36.559273,30.000000,14.000000,55.000000,0.269047,34.230000,1.000000
23.312500,44.024750,30.000000,14.000000,54.000000,0.269047,34.230000,1.000000
23.328125,48.524315,30.000000,14.000000,54.000000,0.269047,34.230000,1.000000
23.343750,49.489655,29.000000,14.000000,54.000000,0.269047,34.230000,1.000000
23.359375,47.023140,29.000000,14.000000,54.000000,0.269047,34.230000,1.000000
23.375000,41.881850,30.000000,14.000000,54.000000,0.269047,34.230000,1.000000
23.390625,35.090126,30.000000,14.000000,54.000000,0.269047,34.230000,1.000000
23.406250,27.576202,30.000000,14.000000,55.000000,0.269047,34.230000,1.000000
23.421875,19.971360,30.000000,14.000000,55.000000,0.269047,34.230000,1.000000
23.437500,12.532928,30.000000,14.000000,54.000000,0.269047,34.230000,1.000000
23.453125,5.294434,30.000000,14.000000,54.000000,0.269047,34.230000,1.000000
23.468750,-1.665886,30.000000,14.000000,54.000000,0.269047,34.230000,1.000000
23.484375,-8.149368,30.000000,14.000000,54.000000,0.269047,34.230000,1.000000
23.500000,-13.816460,30.000000,14.000000,55.000000,0.269047,34.230000,1.000000
23.515625,-18.359970,30.000000,14.000000,55.000000,0.269047,34.230000,1.000000
23.531250,-21.567917,30.000000,14.000000,55.000000,0.269047,34.230000,1.000000
23.546875,-23.481361,30.000000,14.000000,55.000000,0.269047,34.230000,1.000000
23.562500,-24.308762,30.000000,14.000000,55.000000,0.269047,34.230000,1.000000
23.578125,-24.355720,30.000000,14.000000,55.000000,0.269047,34.230000,1.000000
23.593750,-23.928642,29.000000,14.000000,53.000000,0.269047,34.230000,1.000000
23.609375,-23.231071,29.000000,14.000000,53.000000,0.269047,34.230000,1.000000
23.625000,-22.389610,29.000000,14.000000,54.000000,0.269047,34.230000,1.000000
23.640625,-21.422012,29.000000,14.000000,54.000000,0.269047,34.230000,1.000000
23.656250,-20.309647,29.000000,14.000000,54.000000,0.269047,34.230000,1.000000
23.671875,-19.063538,29.000000,14.000000,54.000000,0.269047,34.230000,1.000000
23.687500,-17.783684,30.000000,14.000000,55.000000,0.269047,34.230000,1.000000
23.703125,-16.701187,30.000000,14.000000,55.000000,0.269047,34.230000,1.000000
23.718750,-16.096832,30.000000,14.000000,54.000000,0.269047,34.230000,1.000000
23.734375,-16.164139,30.000000,14.000000,54.000000,0.269047,34.230000,1.000000
23.750000,-16.905045,30.000000,14.000000,54.000000,0.270328,34.230000,1.000000
23.765625,-18.064377,30.000000,14.000000,54.000000,0.270328,34.230000,1.000000
23.781250,-19.171570,30.000000,14.000000,55.000000,0.270328,34.230000,1.000000
23.796875,-19.737930,30.000000,14.000000,55.000000,0.270328,34.230000,1.000000
23.812500,-19.461334,30.000000,14.000000,55.000000,0.270328,34.230000,1.000000
23.828125,-18.349213,30.000000,14.000000,55.000000,0.270328,34.230000,1.000000
23.843750,-16.670639,30.000000,14.000000,55.000000,0.270328,34.230000,1.000000
23.859375,-14.841965,30.000000,14.000000,55.000000,0.270328,34.230000,1.000000
23.875000,-13.184158,30.000000,14.000000,55.000000,0.270328,34.230000,1.000000
23.890625,-11.823242,30.000000,14.000000,55.000000,0.270328,34.230000,1.000000
23.906250,-10.679810,30.000000,15.000000,54.000000,0.270328,34.230000,1.000000
23.921875,-9.641830,30.000000,15.000000,54.000000,0.270328,34.230000,1.000000
23.937500,-8.675674,30.000000,15.000000,53.000000,0.270328,34.230000,1.000000
23.953125,-7.858047,30.000000,15.000000,53.000000,0.270328,34.230000,1.000000
23.968750,-7.228958,30.000000,15.000000,54.000000,0.270328,34.230000,1.000000
23.984375,-6.736481,30.000000,15.000000,54.000000,0.270328,34.230000,1.000000
24.000000,-6.203537,30.000000,14.000000,55.000000,0.270328,34.230000,1.000000
24.015625,-5.424713,30.000000,14.000000,55.000000,0.270328,34.230000,1.000000
24.031250,-4.298386,30.000000,14.000000,54.000000,0.270328,34.230000,1.000000
24.046875,-2.893570,30.000000,14.000000,54.000000,0.270328,34.230000,1.000000
24.062500,-1.456741,30.000000,15.000000,54.000000,0.270328,34.230000,1.000000
24.078125,-0.214493,30.000000,15.000000,54.000000,0.270328,34.230000,1.000000
24.093750,0.659790,30.000000,15.000000,54.000000,0.270328,34.230000,1.000000
24.109375,1.148056,30.000000,15.000000,54.000000,0.270328,34.230000,1.000000
24.125000,1.372452,30.000000,14.000000,56.000000,0.270328,34.230000,1.000000
24.140625,1.488495,30.000000,14.000000,56.000000,0.270328,34.230000,1.000000
24.156250,1.623505,30.000000,14.000000,56.000000,0.270328,34.230000,1.000000
24.171875,1.838486,30.000000,14.000000,56.000000,0.270328,34.230000,1.000000
24.187500,2.140595,28.000000,15.000000,55.000000,0.270328,34.230000,1.000000
24.203125,2.487396,28.000000,15.000000,55.000000,0.270328,34.230000,1.000000
24.218750,2.837952,51.000000,21.000000,64.000000,0.270328,34.230000,1.000000
24.234375,3.207870,51.000000,21.000000,64.000000,0.270328,34.230000,1.000000
24.250000,3.673950,64.000000,24.000000,71.000000,0.269047,34.230000,1.000000
24.265625,4.324295,64.000000,24.000000,71.000000,0.269047,34.230000,1.000000
24.281250,5.185425,59.000000,28.000000,56.000000,0.269047,34.230000,1.000000
24.296875,6.177521,59.000000,28.000000,56.000000,0.269047,34.230000,1.000000
